ax,ay,az,gx,gy,gz,mx,my,mx
-0.172383,0.402226,9.60075,0.00744957,0.0138349,0.0138349,-3559.48,29.666,39.9656
-0.0909797,0.383072,9.62469,0.00532112,0.00957802,0.0138349,7.10156,27.5215,39.2766
-0.047884,0.440533,9.55765,0.00638535,0.0148991,0.0127707,7.10156,27.5215,39.2766
-0.100556,0.354342,9.54808,0.00638535,0.0159634,0.00851379,7.10156,27.5215,39.2766
-0.0574608,0.47884,9.59117,0.00319267,0.0117065,0.00638535,7.10156,27.5215,39.2766
-0.105345,0.402226,9.53371,0.00638535,0.0117065,0.0106422,7.10156,27.5215,39.2766
-0.0622492,0.402226,9.48583,0.00744957,0.0148991,0.0106422,7.10156,27.5215,39.2766
-0.105345,0.411803,9.50977,0.00638535,0.0148991,0.00851379,7.10156,27.5215,39.2766
-0.0430956,0.392649,9.55765,0.00638535,0.0106422,0.00957802,7.10156,27.5215,39.2766
-0.167594,0.440533,9.45231,0.00532112,0.0148991,0.00744957,7.10156,27.5215,39.2766
-0.0526724,0.411803,9.44752,0.00744957,0.0170276,0.0042569,7.10156,27.5215,39.2766
-0.196325,0.316035,9.50019,0.0106422,0.0117065,0.00638535,7.10156,27.5215,39.2766
-0.143652,0.339977,9.48104,0.00532112,0.0127707,0.00638535,7.10156,27.5215,39.2766
-0.110133,0.383072,9.5385,0.00532112,0.0138349,0.00744957,7.10156,27.5215,39.2766
-0.0814029,0.397437,9.52413,0.00744957,0.0148991,0.0117065,7.10156,27.5215,39.2766
-0.124498,0.397437,9.5816,0.00319267,0.0117065,0.00957802,7.10156,27.5215,39.2766
-0.11971,0.354342,9.54329,0.0042569,0.0106422,0.00957802,7.10156,27.5215,39.2766
-0.11971,0.387861,9.50498,0.00744957,0.0127707,0.0106422,7.10156,27.5215,39.2766
-0.0622492,0.445322,9.40442,0.00957802,0.0148991,0.0117065,7.10156,27.5215,39.2766
-0.0287304,0.397437,9.47625,0.00851379,0.0117065,0.00744957,7.10156,27.5215,39.2766
-0.0861913,0.368707,9.59117,0.00744957,0.0138349,0.00744957,7.10156,27.5215,39.2766
-0.0861913,0.402226,9.46667,0.0042569,0.0170276,0.00957802,7.10156,27.5215,39.2766
-0.100556,0.440533,9.65342,0.0042569,0.0170276,0.0138349,7.10156,27.5215,39.2766
-0.0574608,0.383072,9.44752,0.00957802,0.0148991,0.0117065,7.10156,27.5215,39.2766
-0.0430956,0.349553,9.54808,0.00638535,0.0159634,0.0127707,7.10156,27.5215,39.2766
-0.153229,0.407014,9.4571,0.00851379,0.0138349,0.0127707,7.10156,27.5215,39.2766
-0.100556,0.373495,9.56244,0.0117065,0.0127707,0.0106422,7.10156,27.5215,39.2766
-0.114922,0.426168,9.4571,0.00532112,0.0148991,0.00851379,7.10156,27.5215,39.2766
-0.167594,0.426168,9.64384,0.00319267,0.0148991,0.0106422,7.10156,27.5215,39.2766
-0.11971,0.440533,9.52892,0.00744957,0.0148991,0.0138349,7.10156,27.5215,39.2766
-0.0526724,0.387861,9.49062,0.00957802,0.0117065,0.00638535,7.10156,27.5215,39.2766
-0.0909797,0.325611,9.46667,0.0042569,0.0106422,0.00319267,7.10156,27.5215,39.2766
0,0.316035,9.55765,0.00851379,0.0138349,0.00851379,7.10156,27.5215,39.2766
-0.114922,0.316035,9.62469,0.00744957,0.0127707,0.0117065,7.10156,27.5215,39.2766
-0.0622492,0.445322,9.43794,0.00532112,0.0148991,0.0117065,7.10156,27.5215,39.2766
-0.124498,0.440533,9.50019,0.00851379,0.00851379,0.00851379,7.10156,27.5215,39.2766
-0.11971,0.416591,9.54808,0.00851379,0.00957802,0.0106422,7.10156,27.5215,39.2766
-0.124498,0.363919,9.4571,0.00744957,0.0117065,0.0106422,7.10156,27.5215,39.2766
-0.0670376,0.3304,9.414,0.00851379,0.0138349,0.00957802,7.10156,27.5215,39.2766
-0.114922,0.483629,9.55287,0.00744957,0.0127707,0.00638535,7.10156,27.5215,39.2766
-0.167594,0.325611,9.5385,0.00851379,0.0148991,0.00744957,7.10156,27.5215,39.2766
-0.134075,0.397437,9.51456,0.0106422,0.0138349,0.00744957,7.10156,27.5215,39.2766
-0.201113,0.430956,9.46188,0.00744957,0.0127707,0.00957802,7.10156,27.5215,39.2766
-0.0766145,0.430956,9.47625,0.00851379,0.0148991,0.0106422,7.10156,27.5215,39.2766
-0.105345,0.426168,9.53371,0.00851379,0.0127707,0.00638535,7.10156,27.5215,39.2766
-0.100556,0.407014,9.61511,0.00744957,0.00957802,0.0117065,7.10156,27.5215,39.2766
-0.138864,0.383072,9.52892,0.00532112,0.0117065,0.0127707,7.10156,27.5215,39.2766
-0.134075,0.387861,9.49062,0.00851379,0.0127707,0.00638535,7.10156,27.5215,39.2766
-0.138864,0.387861,9.71088,0.00851379,0.0170276,0.00744957,7.10156,27.5215,39.2766
-0.0191536,0.349553,9.52413,0.00638535,0.0117065,0.0148991,7.10156,27.5215,39.2766
-0.138864,0.392649,9.4571,0.00851379,0.0127707,0.00957802,7.10156,27.5215,39.2766
-0.129287,0.416591,9.50977,0.00638535,0.0117065,0.00744957,7.10156,27.5215,39.2766
-0.138864,0.387861,9.57202,0.00638535,0.0127707,0.0138349,7.10156,27.5215,39.2766
-0.143652,0.488417,9.5816,0.00319267,0.0106422,0.0138349,7.10156,27.5215,39.2766
-0.0622492,0.426168,9.39485,0.00532112,0.0138349,0.0106422,7.10156,27.5215,39.2766
-0.11971,0.344765,9.54808,0.0127707,0.0148991,0.0117065,7.10156,27.5215,39.2766
-0.0861913,0.402226,9.42837,0.00851379,0.0127707,0.00638535,7.10156,27.5215,39.2766
-0.0814029,0.497994,9.46667,0.00957802,0.0127707,0.00957802,7.10156,27.5215,39.2766
-0.167594,0.45011,9.46667,0.0127707,0.0148991,0.0106422,7.10156,27.5215,39.2766
-0.047884,0.47884,9.67257,0.00638535,0.0138349,0.00957802,7.10156,27.5215,39.2766
-0.0861913,0.42138,9.49062,0.00851379,0.0148991,0.0138349,7.10156,27.5215,39.2766
-0.114922,0.335188,9.49062,0.00851379,0.0180918,0.0117065,7.10156,27.5215,39.2766
-0.158017,0.45011,9.56244,0.00532112,0.0202203,0.0106422,7.10156,27.5215,39.2766
-0.0861913,0.42138,9.57202,0.00957802,0.0127707,0.00532112,7.10156,27.5215,39.2766
-0.11971,0.363919,9.48104,0.0117065,0.0138349,0.0138349,7.10156,27.5215,39.2766
-0.129287,0.363919,9.50019,0.00851379,0.0138349,0.00851379,7.10156,27.5215,39.2766
-0.143652,0.392649,9.48104,0.00532112,0.0127707,0.00851379,7.10156,27.5215,39.2766
-0.0526724,0.42138,9.42837,0.00744957,0.0127707,0.0117065,7.10156,27.5215,39.2766
-0.129287,0.445322,9.50019,0.00957802,0.0159634,0.00957802,7.10156,27.5215,39.2766
-0.153229,0.339977,9.52413,0.00319267,0.0170276,0.0106422,7.10156,27.5215,39.2766
-0.0191536,0.416591,9.45231,0.0042569,0.0148991,0.0138349,7.10156,27.5215,39.2766
-0.0861913,0.363919,9.44273,0.00532112,0.0148991,0.00744957,7.10156,27.5215,39.2766
-0.105345,0.387861,9.414,0.00851379,0.0117065,0.00532112,7.10156,27.5215,39.2766
-0.148441,0.320823,9.61511,0.00851379,0.0138349,0.00638535,7.10156,27.5215,39.2766
-0.134075,0.407014,9.54808,0.00212845,0.0138349,0.00744957,7.10156,27.5215,39.2766
-0.124498,0.397437,9.50977,0.0042569,0.0159634,0.00957802,7.10156,27.5215,39.2766
-0.0861913,0.373495,9.34217,0.00319267,0.0117065,0.0106422,7.10156,27.5215,39.2766
-0.105345,0.335188,9.50498,0.00532112,0.00957802,0.00851379,7.10156,27.5215,39.2766
-0.0814029,0.426168,9.52892,0.00744957,0.0148991,0.00957802,7.10156,27.5215,39.2766
-0.0814029,0.45011,9.46188,0.00957802,0.0138349,0.00851379,7.10156,27.5215,39.2766
-0.0909797,0.3304,9.46667,0.00957802,0.0148991,0.00851379,7.10156,27.5215,39.2766
-0.105345,0.47884,9.61033,0.00744957,0.0138349,0.00957802,7.10156,27.5215,39.2766
-0.0861913,0.354342,9.50019,0.00744957,0.0148991,0.0127707,7.10156,27.5215,39.2766
-0.105345,0.430956,9.5385,0.00319267,0.0138349,0.00744957,7.10156,27.5215,39.2766
-0.0383072,0.416591,9.38527,0.00744957,0.0127707,0.00851379,8.52188,26.0918,38.932
-0.105345,0.392649,9.52413,0.00638535,0.00957802,0.00851379,8.52188,26.0918,38.932
-0.167594,0.402226,9.64384,0.00851379,0.0138349,0.00744957,8.52188,26.0918,38.932
-0.0814029,0.435745,9.63906,0.00532112,0.0138349,0.00744957,8.52188,26.0918,38.932
-0.0670376,0.402226,9.51456,0.00744957,0.0148991,0.00744957,8.52188,26.0918,38.932
-0.105345,0.483629,9.60075,0.00638535,0.0138349,0.00957802,8.52188,26.0918,38.932
-0.023942,0.474052,9.52413,0.00957802,0.0148991,0.00957802,8.52188,26.0918,38.932
-0.0287304,0.383072,9.57202,0.00957802,0.0138349,0.00638535,8.52188,26.0918,38.932
-0.148441,0.416591,9.48583,0.00744957,0.0127707,0.00638535,8.52188,26.0918,38.932
-0.129287,0.402226,9.53371,0.00957802,0.0117065,0.00532112,8.52188,26.0918,38.932
-0.138864,0.248997,9.5816,0.00957802,0.0127707,0.0117065,8.52188,26.0918,38.932
-0.105345,0.339977,9.59596,0.00638535,0.0159634,0.00638535,8.52188,26.0918,38.932
-0.071826,0.392649,9.5816,0.00744957,0.0148991,0.00532112,8.52188,26.0918,38.932
-0.105345,0.316035,9.61033,0.00744957,0.0138349,0.0106422,8.52188,26.0918,38.932
-0.158017,0.387861,9.48104,0.00851379,0.0159634,0.00851379,8.52188,26.0918,38.932
-0.134075,0.440533,9.40921,0.00744957,0.0138349,0.00744957,8.52188,26.0918,38.932
-0.0191536,0.373495,9.4954,0.00744957,0.0127707,0.00851379,8.52188,26.0918,38.932
-0.0670376,0.368707,9.61033,0.00744957,0.00851379,0.0127707,8.52188,26.0918,38.932
-0.0766145,0.363919,9.56244,0.00319267,0.0117065,0.0106422,8.52188,26.0918,38.932
-0.172383,0.349553,9.50977,0.00319267,0.0138349,0.00532112,8.52188,26.0918,38.932
-0.0383072,0.45011,9.54329,0.00744957,0.0138349,0.00532112,8.52188,26.0918,38.932
-0.0191536,0.411803,9.63906,0.0106422,0.0148991,0.00532112,8.52188,26.0918,38.932
-0.0670376,0.411803,9.57202,0.00532112,0.0170276,0.00638535,8.52188,26.0918,38.932
-0.114922,0.368707,9.5385,0.00851379,0.0117065,0.0106422,8.52188,26.0918,38.932
-0.181959,0.445322,9.52892,0.00532112,0.0138349,0.00638535,8.52188,26.0918,38.932
-0.071826,0.426168,9.47625,0.00638535,0.0138349,0.0127707,8.52188,26.0918,38.932
-0.0047884,0.402226,9.48583,0.00638535,0.00957802,0.0106422,8.52188,26.0918,38.932
-0.0909797,0.368707,9.53371,0.00212845,0.00851379,0.00851379,8.52188,26.0918,38.932
-0.11971,0.339977,9.39485,0.00319267,0.0170276,0.0117065,8.52188,26.0918,38.932
-0.114922,0.373495,9.58638,0.0106422,0.0138349,0.00851379,8.52188,26.0918,38.932
-0.100556,0.445322,9.63427,0.00851379,0.0127707,0.00851379,8.52188,26.0918,38.932
0,0.42138,9.56244,0.00744957,0.0117065,0.0138349,8.52188,26.0918,38.932
-0.0383072,0.411803,9.67736,0.0042569,0.0138349,0.00532112,8.52188,26.0918,38.932
-0.0526724,0.387861,9.57202,0.00851379,0.0138349,0.0106422,8.52188,26.0918,38.932
-0.0766145,0.45011,9.48583,0.00638535,0.0148991,0.00638535,8.52188,26.0918,38.932
-0.153229,0.373495,9.50977,0.00638535,0.0138349,0.00851379,8.52188,26.0918,38.932
-0.0766145,0.363919,9.48583,0.00957802,0.0148991,0.0106422,8.52188,26.0918,38.932
-0.138864,0.35913,9.37569,0.00851379,0.0148991,0.00638535,8.52188,26.0918,38.932
-0.0861913,0.316035,9.65342,0.00744957,0.0106422,0.0042569,8.52188,26.0918,38.932
-0.071826,0.397437,9.54808,0.00744957,0.0138349,0.00851379,8.52188,26.0918,38.932
-0.0287304,0.435745,9.61511,0.0042569,0.0148991,0.0106422,8.52188,26.0918,38.932
-0.0670376,0.416591,9.5385,0.00957802,0.0148991,0.00532112,8.52188,26.0918,38.932
-0.110133,0.493206,9.51456,0.00532112,0.0117065,0.00532112,8.52188,26.0918,38.932
-0.105345,0.397437,9.46188,0.0106422,0.0106422,0.00638535,8.52188,26.0918,38.932
-0.0526724,0.373495,9.5816,0.00957802,0.0117065,0.00957802,8.52188,26.0918,38.932
-0.071826,0.311246,9.50977,0.0117065,0.0127707,0.00532112,8.52188,26.0918,38.932
-0.158017,0.383072,9.4954,0.00851379,0.0117065,0.00532112,8.52188,26.0918,38.932
-0.0574608,0.387861,9.48583,0.0042569,0.0127707,0.00744957,8.52188,26.0918,38.932
-0.0574608,0.397437,9.53371,0.00638535,0.0106422,0.00851379,8.52188,26.0918,38.932
-0.0909797,0.435745,9.44273,0.00638535,0.0138349,0.00957802,8.52188,26.0918,38.932
-0.0814029,0.325611,9.55765,0.00319267,0.0138349,0.0042569,8.52188,26.0918,38.932
-0.0191536,0.392649,9.51456,0.00744957,0.0138349,0.00851379,8.52188,26.0918,38.932
-0.138864,0.464475,9.45231,0.0042569,0.0138349,0.00744957,8.52188,26.0918,38.932
-0.0670376,0.407014,9.59596,0.0042569,0.0127707,0.0117065,8.52188,26.0918,38.932
-0.071826,0.411803,9.38527,0.00532112,0.0138349,0.00851379,8.52188,26.0918,38.932
-0.158017,0.363919,9.43794,0.00319267,0.0159634,0.0106422,8.52188,26.0918,38.932
-0.124498,0.411803,9.5385,0.00638535,0.0138349,0.0170276,8.52188,26.0918,38.932
-0.114922,0.387861,9.4954,0.00744957,0.0148991,0.00851379,8.52188,26.0918,38.932
-0.158017,0.392649,9.55287,0.00957802,0.0138349,0.00744957,8.52188,26.0918,38.932
-0.0814029,0.42138,9.37569,0.00532112,0.0106422,0.00957802,8.52188,26.0918,38.932
-0.0861913,0.45011,9.58638,0.00532112,0.0159634,0.00744957,8.52188,26.0918,38.932
-0.0909797,0.411803,9.61033,0.00957802,0.019156,0.00957802,8.52188,26.0918,38.932
-0.023942,0.383072,9.57202,0.0117065,0.0117065,0.00957802,8.52188,26.0918,38.932
-0.0383072,0.483629,9.63427,0.00851379,0.0127707,0.00744957,8.52188,26.0918,38.932
-0.105345,0.416591,9.47625,0.00638535,0.0127707,0.00957802,8.52188,26.0918,38.932
-0.172383,0.42138,9.45231,0.00851379,0.0138349,0.00851379,8.52188,26.0918,38.932
-0.181959,0.397437,9.63906,0.00851379,0.00851379,0.0106422,8.52188,26.0918,38.932
-0.071826,0.339977,9.5385,0.00532112,0.00851379,0.00957802,8.52188,26.0918,38.932
-0.047884,0.344765,9.49062,0.00638535,0.0148991,0.00532112,8.52188,26.0918,38.932
-0.0191536,0.445322,9.56244,0.00319267,0.0170276,0.00957802,8.52188,26.0918,38.932
-0.0814029,0.411803,9.33739,0.0106422,0.0148991,0.00957802,8.52188,26.0918,38.932
-0.134075,0.440533,9.46667,0.00638535,0.0127707,0.0106422,8.52188,26.0918,38.932
-0.071826,0.416591,9.58638,0.00957802,0.0117065,0.0117065,8.52188,26.0918,38.932
-0.129287,0.407014,9.49062,0.0106422,0.0127707,0.00957802,8.52188,26.0918,38.932
-0.0287304,0.368707,9.47625,0.00744957,0.0117065,0.00851379,8.52188,26.0918,38.932
-0.071826,0.35913,9.62948,0.00319267,0.00851379,0.0127707,8.52188,26.0918,38.932
-0.100556,0.35913,9.4571,0.00638535,0.0138349,0.0117065,8.52188,26.0918,38.932
-0.105345,0.435745,9.55287,0.00744957,0.0170276,0.0117065,8.52188,26.0918,38.932
-0.100556,0.373495,9.50019,0.0042569,0.0127707,0.0106422,8.52188,26.0918,38.932
-0.110133,0.426168,9.38048,0.00744957,0.0117065,0.0106422,8.52188,26.0918,38.932
-0.047884,0.397437,9.53371,0.0042569,0.0117065,0.0138349,8.52188,26.0918,38.932
-0.114922,0.416591,9.55765,0.00744957,0.0148991,0.00744957,8.52188,26.0918,38.932
-0.114922,0.440533,9.50977,0.00638535,0.0117065,0.00638535,8.52188,26.0918,38.932
-0.282516,0.349553,9.53371,0.00532112,0.0148991,0.00532112,8.52188,26.0918,38.932
-0.0766145,0.426168,9.43794,0.0117065,0.0148991,0.0117065,8.52188,26.0918,38.932
-0.114922,0.306458,9.68694,0.00957802,0.00851379,0.00851379,8.52188,26.0918,38.932
-0.105345,0.387861,9.54329,0.00638535,0.0138349,0.00957802,8.52188,26.0918,38.932
-0.11971,0.402226,9.48104,0.00744957,0.0180918,0.00744957,9.05449,25.1982,40.827
-0.138864,0.392649,9.46188,0.00744957,0.0117065,0.00532112,9.05449,25.1982,40.827
-0.0526724,0.42138,9.65342,0.00638535,0.0117065,0.00851379,9.05449,25.1982,40.827
-0.138864,0.392649,9.65342,0.00638535,0.0148991,0.0117065,9.05449,25.1982,40.827
-0.186748,0.407014,9.5385,0.00851379,0.0138349,0.00744957,9.05449,25.1982,40.827
-0.105345,0.354342,9.50977,0.00744957,0.0138349,0.00744957,9.05449,25.1982,40.827
-0.177171,0.354342,9.58638,0.00319267,0.0159634,0.0117065,9.05449,25.1982,40.827
-0.100556,0.517148,9.52892,0.0106422,0.0117065,0.0117065,9.05449,25.1982,40.827
-0.047884,0.253785,9.44273,0.00638535,0.0148991,0.00532112,9.05449,25.1982,40.827
-0.0909797,0.411803,9.54329,0.00532112,0.0127707,0.00638535,9.05449,25.1982,40.827
-0.0622492,0.402226,9.43315,0.00744957,0.0138349,0.0138349,9.05449,25.1982,40.827
-0.148441,0.373495,9.56244,0.00851379,0.0138349,0.00744957,9.05449,25.1982,40.827
-0.0814029,0.407014,9.52413,0.00532112,0.0138349,0.0042569,9.05449,25.1982,40.827
-0.181959,0.435745,9.52892,0.00532112,0.0127707,0.00851379,9.05449,25.1982,40.827
-0.071826,0.430956,9.54808,0.00851379,0.0148991,0.0138349,9.05449,25.1982,40.827
-0.129287,0.335188,9.45231,0.0106422,0.0148991,0.00957802,9.05449,25.1982,40.827
-0.129287,0.373495,9.39964,0.00744957,0.0148991,0.00957802,9.05449,25.1982,40.827
-0.158017,0.426168,9.50019,0.00851379,0.0117065,0.00744957,9.05449,25.1982,40.827
-0.0909797,0.397437,9.59596,0.00744957,0.0148991,0.00957802,9.05449,25.1982,40.827
-0.0143652,0.454898,9.44273,0.00532112,0.0117065,0.00532112,9.05449,25.1982,40.827
-0.11971,0.397437,9.5385,0.00744957,0.0117065,0.00532112,9.05449,25.1982,40.827
-0.124498,0.392649,9.68694,0.00532112,0.0170276,0.0106422,9.05449,25.1982,40.827
-0.0814029,0.445322,9.38048,0.00851379,0.0159634,0.00851379,9.05449,25.1982,40.827
-0.105345,0.368707,9.56244,0.00851379,0.0159634,0.00851379,9.05449,25.1982,40.827
-0.071826,0.354342,9.48104,0.00851379,0.0127707,0.00957802,9.05449,25.1982,40.827
-0.11971,0.407014,9.52892,0.00851379,0.0138349,0.00851379,9.05449,25.1982,40.827
-0.0383072,0.373495,9.44752,0.00957802,0.0148991,0.0127707,9.05449,25.1982,40.827
-0.110133,0.306458,9.61511,0.00638535,0.0148991,0.0127707,9.05449,25.1982,40.827
-0.100556,0.277727,9.44752,0.00851379,0.0148991,0.0106422,9.05449,25.1982,40.827
-0.114922,0.3304,9.46188,0.00957802,0.00957802,0.0117065,9.05449,25.1982,40.827
-0.0622492,0.407014,9.44273,0.0117065,0.0117065,0.00957802,9.05449,25.1982,40.827
-0.114922,0.383072,9.45231,0.00957802,0.0148991,0.0117065,9.05449,25.1982,40.827
-0.0670376,0.363919,9.57681,0.00744957,0.0148991,0.00851379,9.05449,25.1982,40.827
-0.153229,0.45011,9.5816,0.00638535,0.0170276,0.00957802,9.05449,25.1982,40.827
-0.0670376,0.296881,9.52413,0.00532112,0.0148991,0.00851379,9.05449,25.1982,40.827
-0.0909797,0.440533,9.56244,0.00851379,0.0106422,0.00638535,9.05449,25.1982,40.827
-0.0766145,0.392649,9.58638,0.0106422,0.0106422,0.00638535,9.05449,25.1982,40.827
-0.0574608,0.354342,9.46188,0.00532112,0.0202203,0.00744957,9.05449,25.1982,40.827
-0.100556,0.287304,9.5816,0.00851379,0.019156,0.00957802,9.05449,25.1982,40.827
-0.143652,0.349553,9.50019,0.0106422,0.0127707,0.00851379,9.05449,25.1982,40.827
-0.11971,0.440533,9.45231,0.0042569,0.0117065,0.00957802,9.05449,25.1982,40.827
-0.105345,0.42138,9.57681,0.00851379,0.0127707,0.00744957,9.05449,25.1982,40.827
-0.0191536,0.354342,9.4571,0.00744957,0.0127707,0.00851379,9.05449,25.1982,40.827
-0.148441,0.397437,9.51456,0.00957802,0.0148991,0.00638535,9.05449,25.1982,40.827
-0.158017,0.397437,9.50977,0.00851379,0.0106422,0.00744957,9.05449,25.1982,40.827
-0.0861913,0.3304,9.52413,0.00744957,0.0117065,0.00957802,9.05449,25.1982,40.827
-0.0909797,0.435745,9.5816,0.00532112,0.0138349,0.0138349,9.05449,25.1982,40.827
-0.105345,0.430956,9.39964,0.00957802,0.0159634,0.0106422,9.05449,25.1982,40.827
-0.0814029,0.440533,9.52892,0.00957802,0.0117065,0.00638535,9.05449,25.1982,40.827
0.0191536,0.411803,9.57202,0.00319267,0.0106422,0.00744957,9.05449,25.1982,40.827
-0.11971,0.397437,9.51456,0.00532112,0.0170276,0.00957802,9.05449,25.1982,40.827
-0.110133,0.502782,9.63906,0.0106422,0.0159634,0.0117065,9.05449,25.1982,40.827
-0.114922,0.373495,9.53371,0.00638535,0.0138349,0.0042569,9.05449,25.1982,40.827
-0.11971,0.426168,9.52413,0.00532112,0.0138349,0.00638535,9.05449,25.1982,40.827
-0.100556,0.435745,9.57202,0.0042569,0.0138349,0.0127707,9.05449,25.1982,40.827
-0.0526724,0.430956,9.61033,0.00957802,0.0138349,0.0127707,9.05449,25.1982,40.827
-0.158017,0.383072,9.61033,0.00957802,0.0117065,0.00957802,9.05449,25.1982,40.827
-0.167594,0.373495,9.5385,0.00744957,0.0127707,0.00744957,9.05449,25.1982,40.827
-0.0670376,0.430956,9.50977,0.0042569,0.0159634,0.00532112,9.05449,25.1982,40.827
-0.134075,0.368707,9.65342,0.0042569,0.0148991,0.0106422,9.05449,25.1982,40.827
-0.0143652,0.383072,9.57202,0.0117065,0.0138349,0.00744957,9.05449,25.1982,40.827
-0.0574608,0.320823,9.46188,0.00851379,0.0138349,0.00957802,9.05449,25.1982,40.827
-0.110133,0.42138,9.4571,0.00319267,0.0148991,0.0127707,9.05449,25.1982,40.827
-0.0430956,0.435745,9.50498,0.0127707,0.0127707,0.00851379,9.05449,25.1982,40.827
-0.100556,0.397437,9.54808,0.0138349,0.0106422,0.00851379,9.05449,25.1982,40.827
-0.148441,0.3304,9.45231,0.0106422,0.0138349,0.00638535,9.05449,25.1982,40.827
-0.158017,0.445322,9.56244,0.00744957,0.0159634,0.0106422,9.05449,25.1982,40.827
-0.110133,0.426168,9.61033,0.00851379,0.0106422,0.00851379,9.05449,25.1982,40.827
-0.129287,0.373495,9.50019,0.00638535,0.0138349,0.00744957,9.05449,25.1982,40.827
-0.124498,0.42138,9.55765,0.00532112,0.0148991,0.00851379,9.05449,25.1982,40.827
-0.191536,0.363919,9.44752,0.00851379,0.0148991,0.00851379,9.05449,25.1982,40.827
-0.114922,0.426168,9.43794,0.00957802,0.0180918,0.0042569,9.05449,25.1982,40.827
-0.023942,0.363919,9.56244,0.00851379,0.0127707,0.0106422,9.05449,25.1982,40.827
-0.023942,0.402226,9.39485,0.00638535,0.0148991,0.00851379,9.05449,25.1982,40.827
-0.0670376,0.397437,9.51456,0.00957802,0.0127707,0.00851379,9.05449,25.1982,40.827
-0.129287,0.387861,9.52892,0.00744957,0.0117065,0.00851379,9.05449,25.1982,40.827
-0.134075,0.397437,9.46667,0.00744957,0.0106422,0.00851379,9.05449,25.1982,40.827
-0.124498,0.373495,9.663,0.00319267,0.0106422,0.0117065,9.05449,25.1982,40.827
-0.186748,0.368707,9.57681,0.00106422,0.00957802,0.00957802,9.05449,25.1982,40.827
-0.0622492,0.392649,9.48583,0.00638535,0.0180918,0.0106422,9.05449,25.1982,40.827
-0.134075,0.344765,9.52892,0.00638535,0.0170276,0.0159634,9.05449,25.1982,40.827
-0.158017,0.349553,9.42837,0.00532112,0.00957802,0.00957802,9.05449,25.1982,40.827
-0.0861913,0.354342,9.46188,0.00851379,0.0117065,0.00957802,9.05449,25.1982,40.827
-0.114922,0.47884,9.51456,0.00319267,0.0159634,0.0127707,9.05449,25.1982,40.827
-0.0191536,0.430956,9.55287,0.00532112,0.0117065,0.0138349,9.05449,25.1982,40.827
-0.129287,0.407014,9.5385,0.00638535,0.0117065,0.0127707,9.05449,25.1982,40.827
-0.0814029,0.397437,9.55765,0.00638535,0.0127707,0.00638535,9.05449,25.1982,40.827
-0.148441,0.445322,9.4954,0.0042569,0.00957802,0.0042569,9.05449,25.1982,40.827
-0.100556,0.373495,9.50019,0.00532112,0.0148991,0.00744957,9.05449,25.1982,40.827
-0.138864,0.354342,9.44752,0.00744957,0.0148991,0.0127707,9.05449,25.1982,40.827
-0.0814029,0.35913,9.60075,0.00957802,0.0180918,0.0117065,9.05449,25.1982,40.827
-0.110133,0.397437,9.53371,0.00744957,0.0148991,0.00851379,9.05449,25.1982,40.827
-0.11971,0.440533,9.63906,0.00957802,0.0106422,0.00744957,9.05449,25.1982,40.827
-0.0861913,0.368707,9.43315,0.00851379,0.0106422,0.0042569,9.05449,25.1982,40.827
-0.071826,0.397437,9.52892,0.00744957,0.0127707,0.0117065,9.05449,25.1982,40.827
-0.100556,0.3304,9.43794,0.00957802,0.0127707,0.00851379,9.05449,25.1982,40.827
-0.100556,0.383072,9.42358,0.00532112,0.0148991,0.00744957,9.05449,25.1982,40.827
-0.114922,0.426168,9.61033,0.00532112,0.0117065,0.00957802,9.05449,25.1982,40.827
-0.143652,0.430956,9.63906,0.00744957,0.0127707,0.00532112,9.05449,25.1982,40.827
-0.11971,0.383072,9.42358,0.00319267,0.0148991,0.00532112,9.05449,25.1982,40.827
-0.071826,0.311246,9.55765,0.00957802,0.0148991,0.00851379,9.05449,25.1982,40.827
-0.0191536,0.383072,9.57202,0.00744957,0.0106422,0.0117065,9.05449,25.1982,40.827
-0.071826,0.383072,9.5816,0.0042569,0.0127707,0.0138349,9.05449,25.1982,40.827
-0.134075,0.402226,9.53371,0.00851379,0.0170276,0.0127707,9.05449,25.1982,40.827
-0.0909797,0.402226,9.5816,0.00744957,0.0180918,0.0138349,9.05449,25.1982,40.827
-0.110133,0.392649,9.46667,0.00319267,0.0148991,0.0159634,9.05449,25.1982,40.827
-0.177171,0.339977,9.44273,0.00744957,0.0117065,0.00744957,9.05449,25.1982,40.827
-0.158017,0.435745,9.5816,0.00744957,0.0127707,0.00957802,9.05449,25.1982,40.827
-0.138864,0.392649,9.42358,0.00744957,0.0138349,0.0106422,9.05449,25.1982,40.827
-0.138864,0.397437,9.60075,0.00106422,0.0127707,0.0117065,9.05449,25.1982,40.827
-0.158017,0.35913,9.44273,0.0117065,0.00744957,0.00744957,9.05449,25.1982,40.827
-0.138864,0.349553,9.52413,0.0138349,0.0138349,0.00638535,9.05449,25.1982,40.827
-0.0526724,0.35913,9.42837,0.00532112,0.0117065,0.00638535,9.05449,25.1982,40.827
-0.143652,0.387861,9.60075,0.00957802,0.0148991,0.0106422,9.05449,25.1982,40.827
-0.023942,0.445322,9.59117,0.00957802,0.0148991,0.00957802,9.05449,25.1982,40.827
-0.071826,0.339977,9.5816,0.00638535,0.0127707,0.0117065,9.05449,25.1982,40.827
-0.114922,0.464475,9.60554,0.0106422,0.0138349,0.0127707,9.05449,25.1982,40.827
-0.0670376,0.363919,9.5816,0.00744957,0.0159634,0.0127707,9.05449,25.1982,40.827
-0.0191536,0.397437,9.50977,0.00532112,0.0138349,0.00851379,9.05449,25.1982,40.827
-0.0814029,0.383072,9.54329,0.00532112,0.0127707,0.00744957,9.05449,25.1982,40.827
-0.124498,0.430956,9.4571,0.00319267,0.0148991,0.00957802,9.05449,25.1982,40.827
-0.143652,0.407014,9.50498,0.00532112,0.0159634,0.0117065,9.05449,25.1982,40.827
-0.177171,0.368707,9.53371,0.00957802,0.0159634,0.0117065,9.05449,25.1982,40.827
-0.071826,0.354342,9.43794,0.00532112,0.0106422,0.0117065,9.05449,25.1982,40.827
-0.071826,0.45011,9.39485,0.00532112,0.0148991,0.00957802,9.05449,25.1982,40.827
-0.110133,0.445322,9.44273,0.00319267,0.0170276,0.00957802,9.05449,25.1982,40.827
-0.0861913,0.464475,9.59596,0.00638535,0.0127707,0.00744957,9.05449,25.1982,40.827
-0.0814029,0.430956,9.45231,0.00532112,0.0148991,0.0127707,9.05449,25.1982,40.827
-0.0430956,0.474052,9.59596,0.0042569,0.019156,0.00851379,9.05449,25.1982,40.827
-0.148441,0.430956,9.4954,0.00744957,0.0138349,0.00638535,9.05449,25.1982,40.827
-0.0861913,0.35913,9.48104,0.00851379,0.0127707,0.0106422,9.05449,25.1982,40.827
-0.0622492,0.426168,9.50498,0.00532112,0.0117065,0.0170276,9.05449,25.1982,40.827
-0.153229,0.35913,9.55765,0.0106422,0.0138349,0.00957802,9.05449,25.1982,40.827
-0.191536,0.440533,9.50019,0.0106422,0.0180918,0.0042569,9.05449,25.1982,40.827
-0.167594,0.397437,9.50019,0.0042569,0.0148991,0.00638535,9.05449,25.1982,40.827
-0.129287,0.47884,9.68215,0.00532112,0.0117065,0.0117065,9.05449,25.1982,40.827
-0.134075,0.402226,9.414,0.00744957,0.0138349,0.00957802,9.05449,25.1982,40.827
-0.215478,0.397437,9.61033,0.0042569,0.0159634,0.00957802,9.05449,25.1982,40.827
-0.0814029,0.45011,9.54329,0.00532112,0.0148991,0.00957802,9.05449,25.1982,40.827
0.023942,0.416591,9.40442,0.00851379,0.0170276,0.0106422,9.05449,25.1982,40.827
-0.105345,0.363919,9.50977,0.00638535,0.0159634,0.00957802,9.05449,25.1982,40.827
-0.11971,0.45011,9.4954,0.00532112,0.00851379,0.0117065,9.05449,25.1982,40.827
-0.110133,0.35913,9.60554,0.00957802,0.0148991,0.0106422,9.05449,25.1982,40.827
-0.129287,0.426168,9.60554,0.00532112,0.0170276,0.00744957,9.05449,25.1982,40.827
-0.0909797,0.354342,9.46188,0.00957802,0.0170276,0.00638535,9.05449,25.1982,40.827
0.0047884,0.392649,9.47625,0.0127707,0.0117065,0.00851379,9.05449,25.1982,40.827
-0.0287304,0.454898,9.48583,0.00744957,0.0138349,0.00532112,9.05449,25.1982,40.827
-0.0670376,0.383072,9.54329,0.0117065,0.0138349,0.0106422,9.05449,25.1982,40.827
-0.071826,0.397437,9.50498,0.00957802,0.0138349,0.0106422,9.05449,25.1982,40.827
-0.11971,0.445322,9.56244,0.00744957,0.0148991,0.00957802,9.05449,25.1982,40.827
-0.114922,0.383072,9.50977,0.00744957,0.0117065,0.0106422,9.05449,25.1982,40.827
-0.00957681,0.363919,9.46188,0.00957802,0.0106422,0.00744957,9.05449,25.1982,40.827
-0.114922,0.383072,9.42358,0.00957802,0.019156,0.00957802,9.05449,25.1982,40.827
-0.0383072,0.373495,9.5385,0.0042569,0.0159634,0.00851379,9.05449,25.1982,40.827
-0.105345,0.354342,9.57202,0.00957802,0.0148991,0.0106422,9.05449,25.1982,40.827
-0.100556,0.454898,9.59117,0.00957802,0.0138349,0.00744957,9.05449,25.1982,40.827
-0.0430956,0.383072,9.54808,0.00532112,0.0159634,0.00638535,9.05449,25.1982,40.827
-0.148441,0.445322,9.55765,0.00744957,0.00957802,0.00957802,9.05449,25.1982,40.827
-0.0670376,0.402226,9.55287,0.00744957,0.0148991,0.0106422,9.05449,25.1982,40.827
-0.105345,0.416591,9.5385,0.00638535,0.0138349,0.00851379,9.05449,25.1982,40.827
-0.167594,0.47884,9.53371,0.00638535,0.0148991,0.00319267,9.05449,25.1982,40.827
-0.0287304,0.464475,9.663,0.00957802,0.0138349,0.00744957,9.05449,25.1982,40.827
-0.105345,0.402226,9.57681,0.0106422,0.0138349,0.0117065,9.05449,25.1982,40.827
-0.0814029,0.349553,9.62948,0.00319267,0.00957802,0.00957802,9.05449,25.1982,40.827
-0.0909797,0.430956,9.48583,0.00638535,0.0117065,0.00319267,9.05449,25.1982,40.827
-0.0622492,0.392649,9.414,0.00744957,0.0148991,0.0106422,9.05449,25.1982,40.827
-0.0909797,0.517148,9.47625,0.00744957,0.0138349,0.00957802,9.05449,25.1982,40.827
-0.105345,0.354342,9.60554,0.00532112,0.00957802,0.00638535,9.05449,25.1982,40.827
-0.153229,0.349553,9.49062,0.00851379,0.0159634,0.00532112,9.05449,25.1982,40.827
-0.114922,0.407014,9.58638,0.00957802,0.0106422,0.00744957,9.05449,25.1982,40.827
-0.172383,0.42138,9.44752,0.00744957,0.0117065,0.0127707,9.05449,25.1982,40.827
-0.110133,0.445322,9.56244,0.0042569,0.0138349,0.00851379,9.05449,25.1982,40.827
-0.110133,0.469264,9.50498,0.00532112,0.0148991,0.00851379,9.05449,25.1982,40.827
-0.0670376,0.454898,9.59596,0.0148991,0.0170276,0.00957802,9.05449,25.1982,40.827
-0.0047884,0.497994,9.64384,0.00532112,0.0127707,0.00638535,9.05449,25.1982,40.827
-0.0574608,0.445322,9.5385,0.00106422,0.0138349,0.0106422,9.05449,25.1982,40.827
-0.023942,0.445322,9.55765,0.00106422,0.0148991,0.0117065,9.05449,25.1982,40.827
-0.0430956,0.296881,9.60554,0.00532112,0.0127707,0.0127707,9.05449,25.1982,40.827
-0.0287304,0.35913,9.60554,0.00638535,0.0138349,0.00744957,9.05449,25.1982,40.827
-0.0766145,0.435745,9.48104,0.0148991,0.0138349,0.0106422,9.05449,25.1982,40.827
-0.0670376,0.373495,9.51456,0.00851379,0.0117065,0.0117065,9.05449,25.1982,40.827
-0.158017,0.397437,9.43315,0.00532112,0.0148991,0.00851379,9.05449,25.1982,40.827
-0.129287,0.368707,9.62469,0.00957802,0.0138349,0.0117065,9.05449,25.1982,40.827
-0.0670376,0.497994,9.55765,0.00638535,0.0127707,0.0138349,9.05449,25.1982,40.827
-0.129287,0.426168,9.52892,0.00744957,0.0138349,0.0106422,9.05449,25.1982,40.827
-0.134075,0.435745,9.50019,0.00319267,0.0138349,0.0106422,9.05449,25.1982,40.827
-0.0430956,0.373495,9.58638,0.00319267,0.0138349,0.0127707,9.05449,25.1982,40.827
-0.148441,0.445322,9.54329,0.00532112,0.0127707,0.0117065,9.05449,25.1982,40.827
-0.134075,0.35913,9.54808,0.0042569,0.0106422,0.00957802,9.05449,25.1982,40.827
-0.186748,0.397437,9.48104,0.0117065,0.0117065,0.00851379,9.05449,25.1982,40.827
-0.114922,0.339977,9.50977,0.0042569,0.0138349,0.0117065,9.05449,25.1982,40.827
-0.0047884,0.397437,9.60075,0.00319267,0.0138349,0.0138349,9.05449,25.1982,40.827
-0.172383,0.426168,9.60554,0.00638535,0.0127707,0.0127707,9.05449,25.1982,40.827
-0.172383,0.42138,9.47625,0.00744957,0.0117065,0.00638535,9.05449,25.1982,40.827
-0.129287,0.407014,9.61511,0.00744957,0.0138349,0.00744957,9.05449,25.1982,40.827
-0.071826,0.373495,9.55765,0.00212845,0.0148991,0.0117065,9.05449,25.1982,40.827
-0.110133,0.411803,9.46188,0,0.0159634,0.0106422,9.05449,25.1982,40.827
-0.148441,0.383072,9.46667,0.00851379,0.0106422,0.00638535,9.05449,25.1982,40.827
-0.0430956,0.416591,9.48583,0.00851379,0.0117065,0.00638535,9.05449,25.1982,40.827
-0.0909797,0.354342,9.44273,0.00638535,0.0159634,0.00851379,9.05449,25.1982,40.827
-0.0191536,0.35913,9.5385,0.00851379,0.0170276,0.00851379,9.05449,25.1982,40.827
0,0.325611,9.61033,0.00638535,0.0148991,0.00638535,9.05449,25.1982,40.827
-0.023942,0.435745,9.55765,0.00638535,0.0148991,0.00744957,9.05449,25.1982,40.827
-0.11971,0.45011,9.43315,0.00532112,0.0159634,0.00851379,9.05449,25.1982,40.827
-0.124498,0.306458,9.59117,0.00744957,0.0170276,0.0106422,9.05449,25.1982,40.827
-0.0143652,0.392649,9.40921,0.00957802,0.00851379,0.00638535,9.05449,25.1982,40.827
-0.186748,0.354342,9.52413,0.0042569,0.0138349,0.0117065,9.05449,25.1982,40.827
-0.0574608,0.383072,9.48104,0.00638535,0.0138349,0.00957802,9.05449,25.1982,40.827
-0.0766145,0.363919,9.45231,0.00957802,0.0117065,0.00744957,9.05449,25.1982,40.827
-0.0383072,0.445322,9.58638,0.00532112,0.00957802,0.00638535,9.05449,25.1982,40.827
-0.114922,0.354342,9.44273,0.00744957,0.0159634,0.00851379,9.05449,25.1982,40.827
-0.0670376,0.335188,9.49062,0.00212845,0.0148991,0.0042569,9.05449,25.1982,40.827
-0.201113,0.430956,9.52413,0.0127707,0.0106422,0.0117065,9.05449,25.1982,40.827
-0.047884,0.3304,9.56244,0.00638535,0.0170276,0.0127707,9.05449,25.1982,40.827
-0.0766145,0.407014,9.67736,0.00319267,0.0159634,0.0106422,9.05449,25.1982,40.827
-0.0574608,0.440533,9.46188,0.00744957,0.0159634,0.00638535,9.05449,25.1982,40.827
-0.11971,0.407014,9.49062,0.00851379,0.0117065,0.00532112,9.05449,25.1982,40.827
-0.0574608,0.373495,9.59117,0.00851379,0.0127707,0.0127707,9.05449,25.1982,40.827
-0.071826,0.483629,9.60554,0.00744957,0.0117065,0.0106422,9.05449,25.1982,40.827
-0.0430956,0.407014,9.46188,0.00957802,0.0159634,0.00851379,9.05449,25.1982,40.827
-0.0814029,0.368707,9.69652,0.00744957,0.0106422,0.00851379,9.05449,25.1982,40.827
-0.148441,0.407014,9.39485,0.0106422,0.0138349,0.00744957,9.05449,25.1982,40.827
-0.105345,0.426168,9.54329,0.00851379,0.0138349,0.00851379,9.05449,25.1982,40.827
-0.110133,0.45011,9.5385,0.0117065,0.0138349,0.00744957,9.05449,25.1982,40.827
-0.0143652,0.35913,9.57202,0.0138349,0.0127707,0.00851379,9.05449,25.1982,40.827
-0.205901,0.454898,9.46667,0.00532112,0.0148991,0.0117065,9.05449,25.1982,40.827
-0.0670376,0.440533,9.48583,0.0042569,0.0138349,0.00957802,9.05449,25.1982,40.827
-0.129287,0.407014,9.4954,0.00957802,0.0148991,0.00957802,9.05449,25.1982,40.827
-0.158017,0.469264,9.50498,0.0106422,0.0148991,0.0106422,9.05449,25.1982,40.827
-0.105345,0.325611,9.58638,0.00638535,0.0106422,0.0138349,9.05449,25.1982,40.827
-0.181959,0.383072,9.60554,0.00638535,0.0138349,0.0106422,9.05449,25.1982,40.827
-0.0909797,0.325611,9.4954,0.00957802,0.00957802,0.00957802,9.05449,25.1982,40.827
-0.0670376,0.363919,9.55287,0.00957802,0.0106422,0.0106422,9.05449,25.1982,40.827
-0.196325,0.445322,9.4954,0.00319267,0.0117065,0.0042569,9.05449,25.1982,40.827
-0.11971,0.435745,9.61511,0.00532112,0.00957802,0.0117065,9.05449,25.1982,40.827
-0.0383072,0.426168,9.54329,0.00638535,0.0138349,0.0127707,9.05449,25.1982,40.827
-0.0143652,0.440533,9.57681,0.00212845,0.0138349,0.0106422,9.05449,25.1982,40.827
-0.0622492,0.35913,9.5385,0.00744957,0.0138349,0.00957802,9.05449,25.1982,40.827
-0.100556,0.335188,9.46188,0.00957802,0.0106422,0.00851379,9.05449,25.1982,40.827
-0.0814029,0.507571,9.48104,0.00532112,0.0159634,0.00744957,9.05449,25.1982,40.827
-0.138864,0.430956,9.50498,0.00638535,0.0170276,0.0148991,9.05449,25.1982,40.827
-0.023942,0.435745,9.60075,0.00319267,0.0159634,0.0117065,9.05449,25.1982,40.827
-0.143652,0.440533,9.52413,0.0106422,0.0148991,0.0106422,9.05449,25.1982,40.827
-0.129287,0.411803,9.37569,0.0117065,0.0138349,0.00957802,9.05449,25.1982,40.827
0,0.387861,9.4571,0.00319267,0.0148991,0.00957802,9.05449,25.1982,40.827
-0.138864,0.440533,9.58638,0.00532112,0.0127707,0.00851379,9.05449,25.1982,40.827
-0.129287,0.440533,9.5816,0.0106422,0.0106422,0.00851379,9.05449,25.1982,40.827
-0.21069,0.392649,9.43315,0.0127707,0.0127707,0.00957802,9.05449,25.1982,40.827
-0.105345,0.335188,9.50019,0.00319267,0.0138349,0.00851379,9.05449,25.1982,40.827
-0.071826,0.454898,9.69652,0.00532112,0.0117065,0.0106422,9.05449,25.1982,40.827
-0.148441,0.502782,9.48104,0.00744957,0.0138349,0.00744957,9.05449,25.1982,40.827
-0.215478,0.392649,9.42358,0.00851379,0.0138349,0.00638535,9.05449,25.1982,40.827
-0.100556,0.344765,9.39006,0.00638535,0.0127707,0.00957802,9.05449,25.1982,40.827
-0.138864,0.435745,9.4954,0.00744957,0.0127707,0.0138349,9.05449,25.1982,40.827
-0.129287,0.387861,9.51456,0.00532112,0.0138349,0.00638535,9.05449,25.1982,40.827
-0.143652,0.320823,9.67736,0.00638535,0.0148991,0.00744957,9.05449,25.1982,40.827
-0.11971,0.383072,9.57202,0.0106422,0.0138349,0.00744957,9.05449,25.1982,40.827
-0.0861913,0.493206,9.51456,0.0117065,0.0159634,0.00957802,9.05449,25.1982,40.827
-0.186748,0.45011,9.49062,0.00851379,0.0159634,0.0138349,9.05449,25.1982,40.827
-0.071826,0.320823,9.55287,0.00638535,0.0180918,0.00957802,8.69941,25.5557,40.1379
-0.0430956,0.411803,9.44273,0.00532112,0.0180918,0.0138349,8.69941,25.5557,40.1379
-0.0191536,0.373495,9.54329,0.00744957,0.0138349,0.0106422,8.69941,25.5557,40.1379
-0.0814029,0.397437,9.54808,0.0106422,0.0127707,0.00851379,8.69941,25.5557,40.1379
-0.11971,0.35913,9.45231,0.0106422,0.0148991,0.00319267,8.69941,25.5557,40.1379
-0.124498,0.339977,9.663,0.00744957,0.0127707,0.00851379,8.69941,25.5557,40.1379
-0.100556,0.42138,9.663,0.00532112,0.0117065,0.0138349,8.69941,25.5557,40.1379
-0.047884,0.301669,9.55287,0.00744957,0.0138349,0.00744957,8.69941,25.5557,40.1379
-0.129287,0.397437,9.58638,0.00532112,0.00957802,0.00638535,8.69941,25.5557,40.1379
-0.0909797,0.45011,9.42358,0.00532112,0.0159634,0.00957802,8.69941,25.5557,40.1379
-0.153229,0.368707,9.43794,0.00851379,0.0170276,0.0117065,8.69941,25.5557,40.1379
-0.0430956,0.383072,9.42358,0.0106422,0.0148991,0.0117065,8.69941,25.5557,40.1379
-0.0383072,0.363919,9.42358,0.00638535,0.00957802,0.0106422,8.69941,25.5557,40.1379
-0.0287304,0.426168,9.40921,0.00957802,0.00957802,0.00744957,8.69941,25.5557,40.1379
-0.177171,0.397437,9.42837,0.0138349,0.0117065,0.00851379,8.69941,25.5557,40.1379
-0.177171,0.435745,9.56244,0.00638535,0.0180918,0.0117065,8.69941,25.5557,40.1379
-0.0861913,0.45011,9.47625,0.00319267,0.0138349,0.00851379,8.69941,25.5557,40.1379
-0.071826,0.426168,9.4954,0.00532112,0.0106422,0.00638535,8.69941,25.5557,40.1379
-0.0622492,0.349553,9.44752,0.00532112,0.0127707,0.00851379,8.69941,25.5557,40.1379
-0.110133,0.411803,9.52413,0.00744957,0.0127707,0.0106422,8.69941,25.5557,40.1379
-0.129287,0.407014,9.5816,0.00851379,0.0138349,0.00532112,8.69941,25.5557,40.1379
-0.148441,0.426168,9.55287,0.00957802,0.0170276,0.0127707,8.69941,25.5557,40.1379
-0.129287,0.454898,9.63906,0.00851379,0.0148991,0.0138349,8.69941,25.5557,40.1379
-0.124498,0.440533,9.52413,0.00957802,0.0138349,0.0106422,8.69941,25.5557,40.1379
-0.100556,0.349553,9.65821,0.00957802,0.0138349,0.00957802,8.69941,25.5557,40.1379
-0.0766145,0.416591,9.63427,0.00851379,0.0170276,0.00532112,8.69941,25.5557,40.1379
-0.0670376,0.42138,9.55765,0.0042569,0.0138349,0.00851379,8.69941,25.5557,40.1379
-0.0766145,0.426168,9.54329,0.00532112,0.0117065,0.0117065,8.69941,25.5557,40.1379
-0.023942,0.35913,9.54329,0.00638535,0.0148991,0.00744957,8.69941,25.5557,40.1379
-0.11971,0.368707,9.39485,0.00532112,0.0127707,0.00744957,8.69941,25.5557,40.1379
-0.00957681,0.407014,9.59596,0.00319267,0.0117065,0.00744957,8.69941,25.5557,40.1379
-0.0574608,0.454898,9.55287,0.00957802,0.0148991,0.0127707,8.69941,25.5557,40.1379
-0.186748,0.502782,9.61511,0.00851379,0.0106422,0.0127707,8.69941,25.5557,40.1379
-0.0861913,0.411803,9.42837,0.00638535,0.0117065,0.00638535,8.69941,25.5557,40.1379
-0.143652,0.320823,9.50498,0.00212845,0.0159634,0.00744957,8.69941,25.5557,40.1379
-0.0670376,0.316035,9.39485,0.00957802,0.0170276,0.0106422,8.69941,25.5557,40.1379
-0.105345,0.407014,9.5816,0.00851379,0.0148991,0.00744957,8.69941,25.5557,40.1379
-0.0047884,0.402226,9.54808,0.00638535,0.0148991,0.0106422,8.69941,25.5557,40.1379
-0.177171,0.392649,9.46667,0.0106422,0.0148991,0.0106422,8.69941,25.5557,40.1379
-0.234632,0.435745,9.38527,0.00638535,0.0148991,0.00957802,8.69941,25.5557,40.1379
-0.172383,0.42138,9.50019,0.0042569,0.0148991,0.00638535,8.69941,25.5557,40.1379
-0.0574608,0.354342,9.50498,0.00851379,0.00957802,0.00532112,8.69941,25.5557,40.1379
-0.134075,0.373495,9.48104,0.00851379,0.0117065,0.0106422,8.69941,25.5557,40.1379
-0.124498,0.387861,9.57681,0.00638535,0.0170276,0.00957802,8.69941,25.5557,40.1379
-0.158017,0.47884,9.55765,0.0138349,0.0127707,0.0117065,8.69941,25.5557,40.1379
-0.105345,0.445322,9.51456,0.00851379,0.0138349,0.00638535,8.69941,25.5557,40.1379
-0.0047884,0.469264,9.51456,0.00319267,0.0148991,0.00744957,8.69941,25.5557,40.1379
-0.0526724,0.42138,9.44752,0.00744957,0.0148991,0.0106422,8.69941,25.5557,40.1379
-0.100556,0.426168,9.50498,0.0117065,0.0170276,0.0117065,8.69941,25.5557,40.1379
-0.167594,0.440533,9.67736,0.00851379,0.0170276,0.00851379,8.69941,25.5557,40.1379
-0.100556,0.430956,9.49062,0.00638535,0.0159634,0.0117065,8.69941,25.5557,40.1379
-0.0909797,0.383072,9.49062,0.00744957,0.0127707,0.0117065,8.69941,25.5557,40.1379
-0.177171,0.411803,9.4571,0.00957802,0.0106422,0.00744957,8.69941,25.5557,40.1379
-0.0526724,0.349553,9.39964,0.0042569,0.0127707,0.0106422,8.69941,25.5557,40.1379
-0.134075,0.426168,9.61511,0.00744957,0.0138349,0.00638535,8.69941,25.5557,40.1379
-0.148441,0.397437,9.42837,0.00744957,0.0138349,0.0127707,8.69941,25.5557,40.1379
-0.0622492,0.426168,9.58638,0.00851379,0.0159634,0.0106422,8.69941,25.5557,40.1379
-0.181959,0.407014,9.61511,0.00319267,0.0127707,0.00532112,8.69941,25.5557,40.1379
-0.0383072,0.383072,9.63427,0.00638535,0.0138349,0.0117065,8.69941,25.5557,40.1379
-0.0909797,0.339977,9.54808,0.0106422,0.0117065,0.00744957,8.69941,25.5557,40.1379
-0.047884,0.411803,9.36612,0.00532112,0.00957802,0.00744957,8.69941,25.5557,40.1379
-0.201113,0.411803,9.52892,0.00638535,0.0159634,0.00851379,8.69941,25.5557,40.1379
-0.0287304,0.35913,9.61511,0.0138349,0.0180918,0.00851379,8.69941,25.5557,40.1379
-0.205901,0.387861,9.50977,0.00744957,0.00957802,0.00532112,8.69941,25.5557,40.1379
-0.110133,0.464475,9.36612,0.0042569,0.0117065,0.00638535,8.69941,25.5557,40.1379
-0.0287304,0.416591,9.63427,0.00851379,0.0127707,0.0127707,8.69941,25.5557,40.1379
-0.172383,0.42138,9.63906,0.0042569,0.00957802,0.0106422,8.69941,25.5557,40.1379
-0.047884,0.411803,9.52892,0.00212845,0.0127707,0.00744957,8.69941,25.5557,40.1379
-0.138864,0.407014,9.48104,0.0106422,0.0159634,0.0127707,8.69941,25.5557,40.1379
-0.0814029,0.430956,9.50019,0.00851379,0.0159634,0.00957802,8.69941,25.5557,40.1379
-0.100556,0.454898,9.59117,0.00744957,0.0170276,0.0106422,8.69941,25.5557,40.1379
-0.124498,0.411803,9.44273,0.00957802,0.0148991,0.0106422,8.69941,25.5557,40.1379
-0.0383072,0.349553,9.4954,0.00851379,0.0117065,0.00957802,8.69941,25.5557,40.1379
-0.181959,0.402226,9.48104,0.00851379,0.0170276,0.00106422,8.69941,25.5557,40.1379
-0.0143652,0.45011,9.48583,0.00744957,0.0180918,0.0106422,8.69941,25.5557,40.1379
-0.11971,0.45011,9.46667,0.0117065,0.0106422,0.0148991,8.69941,25.5557,40.1379
-0.0814029,0.344765,9.40921,0.0106422,0.0127707,0.0106422,8.69941,25.5557,40.1379
-0.0191536,0.282516,9.53371,0.00532112,0.0127707,0.00851379,8.69941,25.5557,40.1379
-0.191536,0.493206,9.46667,0.00638535,0.0148991,0.00532112,8.69941,25.5557,40.1379
-0.134075,0.354342,9.59596,0.00532112,0.0127707,0.0106422,8.69941,25.5557,40.1379
-0.148441,0.387861,9.45231,0.00532112,0.0148991,0.00957802,8.69941,25.5557,40.1379
-0.105345,0.354342,9.46188,0.00532112,0.0127707,0.00744957,8.69941,25.5557,40.1379
-0.158017,0.407014,9.51456,0.00532112,0.0117065,0.0117065,8.69941,25.5557,40.1379
-0.143652,0.35913,9.5816,0.00744957,0.0138349,0.00957802,8.69941,25.5557,40.1379
-0.158017,0.368707,9.53371,0.00851379,0.0180918,0.00638535,8.69941,25.5557,40.1379
-0.0766145,0.42138,9.4954,0.00744957,0.0148991,0.00851379,8.69941,25.5557,40.1379
-0.134075,0.402226,9.49062,0.00319267,0.0170276,0.0117065,8.69941,25.5557,40.1379
-0.0047884,0.35913,9.72525,0.00319267,0.0170276,0.0106422,8.69941,25.5557,40.1379
-0.100556,0.464475,9.64384,0.00851379,0.0148991,0.00638535,8.69941,25.5557,40.1379
-0.0622492,0.392649,9.54808,0.00532112,0.0138349,0.0117065,8.69941,25.5557,40.1379
-0.0766145,0.430956,9.50019,0.00957802,0.0106422,0.00744957,8.69941,25.5557,40.1379
-0.153229,0.387861,9.54808,0.00638535,0.0148991,0.00851379,8.69941,25.5557,40.1379
-0.0670376,0.430956,9.55287,0.00532112,0.0180918,0.00851379,8.69941,25.5557,40.1379
-0.0766145,0.368707,9.55765,0.00957802,0.0159634,0.00638535,8.69941,25.5557,40.1379
-0.0861913,0.339977,9.37569,0.00851379,0.0138349,0.0117065,8.69941,25.5557,40.1379
0.00957681,0.335188,9.57202,0.00744957,0.0106422,0.00638535,8.69941,25.5557,40.1379
-0.0814029,0.373495,9.46188,0.00532112,0.0148991,0.00957802,8.69941,25.5557,40.1379
-0.0430956,0.42138,9.49062,0.00851379,0.0148991,0.0138349,8.69941,25.5557,40.1379
-0.047884,0.316035,9.43794,0.00638535,0.0117065,0.00744957,8.69941,25.5557,40.1379
-0.0287304,0.349553,9.61511,0.00532112,0.0117065,0.00532112,8.69941,25.5557,40.1379
-0.172383,0.35913,9.4954,0.0042569,0.0106422,0.00744957,8.69941,25.5557,40.1379
-0.148441,0.35913,9.4954,0.00319267,0.0138349,0.00744957,8.69941,25.5557,40.1379
-0.143652,0.387861,9.42358,0.00744957,0.0117065,0.00957802,8.69941,25.5557,40.1379
-0.148441,0.335188,9.43315,0.00638535,0.0138349,0.00957802,8.69941,25.5557,40.1379
-0.0383072,0.363919,9.52413,0.00638535,0.0117065,0.0106422,8.69941,25.5557,40.1379
-0.177171,0.383072,9.51456,0.00532112,0.0117065,0.00744957,8.69941,25.5557,40.1379
-0.110133,0.407014,9.54329,0.0106422,0.00957802,0.0106422,8.69941,25.5557,40.1379
-0.124498,0.502782,9.48583,0.00851379,0.0138349,0.00851379,8.69941,25.5557,40.1379
-0.201113,0.282516,9.54329,0.0042569,0.0170276,0.00638535,8.69941,25.5557,40.1379
-0.0143652,0.411803,9.59596,0.00744957,0.0106422,0.0117065,8.69941,25.5557,40.1379
-0.023942,0.354342,9.55765,0.00851379,0.0106422,0.00957802,8.69941,25.5557,40.1379
-0.100556,0.488417,9.39964,0.00957802,0.0106422,0.00638535,8.69941,25.5557,40.1379
-0.0526724,0.383072,9.49062,0.00744957,0.0117065,0.00851379,8.69941,25.5557,40.1379
-0.129287,0.426168,9.50498,0.00532112,0.0148991,0.00638535,8.69941,25.5557,40.1379
-0.0526724,0.383072,9.5816,0.0117065,0.0138349,0.00851379,8.69941,25.5557,40.1379
-0.0383072,0.383072,9.52413,0.0117065,0.0159634,0.0127707,8.69941,25.5557,40.1379
-0.100556,0.426168,9.40442,0.0117065,0.0148991,0.0042569,8.69941,25.5557,40.1379
-0.124498,0.416591,9.67736,0.00744957,0.0127707,0.0117065,8.69941,25.5557,40.1379
-0.0861913,0.512359,9.50498,0.00319267,0.0127707,0.00957802,8.69941,25.5557,40.1379
-0.153229,0.512359,9.51456,0.00532112,0.0170276,0.0106422,8.69941,25.5557,40.1379
-0.0766145,0.3304,9.5385,0.0042569,0.0148991,0.00957802,8.69941,25.5557,40.1379
-0.129287,0.363919,9.58638,0.00744957,0.0138349,0.00532112,8.69941,25.5557,40.1379
-0.11971,0.387861,9.48583,0.00212845,0.00851379,0.00106422,8.69941,25.5557,40.1379
-0.0526724,0.435745,9.56244,0.0042569,0.0138349,0.00851379,8.69941,25.5557,40.1379
-0.0861913,0.430956,9.50977,0.0117065,0.0148991,0.0106422,8.69941,25.5557,40.1379
-0.11971,0.392649,9.55765,0.00957802,0.0106422,0.0117065,8.69941,25.5557,40.1379
-0.114922,0.397437,9.4571,0.00532112,0.0138349,0.0117065,8.69941,25.5557,40.1379
-0.0622492,0.397437,9.4571,0.00957802,0.0127707,0.0138349,8.69941,25.5557,40.1379
-0.100556,0.402226,9.69652,0.00851379,0.0106422,0.00638535,8.69941,25.5557,40.1379
-0.11971,0.45011,9.45231,0.00744957,0.0148991,0.0042569,8.69941,25.5557,40.1379
-0.0670376,0.445322,9.42358,0.00319267,0.0170276,0.0117065,8.69941,25.5557,40.1379
-0.0766145,0.426168,9.50498,0.00532112,0.0117065,0.0106422,8.69941,25.5557,40.1379
-0.0383072,0.373495,9.5385,0.00851379,0.0127707,0.00957802,8.69941,25.5557,40.1379
0.0143652,0.383072,9.48104,0.0138349,0.0117065,0.0127707,8.69941,25.5557,40.1379
-0.153229,0.349553,9.46188,0.0117065,0.0138349,0.00851379,8.69941,25.5557,40.1379
-0.143652,0.435745,9.50977,0.00638535,0.0138349,0.00851379,8.69941,25.5557,40.1379
-0.134075,0.445322,9.55287,0.00957802,0.0127707,0.0127707,8.69941,25.5557,40.1379
-0.0526724,0.464475,9.54808,0.00638535,0.0117065,0.0106422,8.69941,25.5557,40.1379
-0.100556,0.42138,9.35175,0.00744957,0.0170276,0.00744957,8.69941,25.5557,40.1379
-0.11971,0.383072,9.37569,0.00532112,0.0138349,0.00957802,8.69941,25.5557,40.1379
-0.047884,0.392649,9.46667,0.00319267,0.0138349,0.0106422,8.69941,25.5557,40.1379
-0.124498,0.407014,9.5816,0.00638535,0.0138349,0.00851379,8.69941,25.5557,40.1379
-0.110133,0.363919,9.62469,0.00319267,0.0138349,0.00851379,8.69941,25.5557,40.1379
-0.167594,0.445322,9.59596,0.00212845,0.0117065,0.0138349,8.69941,25.5557,40.1379
-0.0909797,0.373495,9.67736,0.00638535,0.0127707,0.00638535,8.69941,25.5557,40.1379
-0.047884,0.368707,9.61033,0.00319267,0.0117065,0.00744957,8.69941,25.5557,40.1379
-0.114922,0.411803,9.38048,0.00957802,0.0170276,0.00851379,8.69941,25.5557,40.1379
-0.114922,0.339977,9.60554,0.00638535,0.0180918,0.00851379,8.69941,25.5557,40.1379
-0.158017,0.392649,9.50498,0.00638535,0.0159634,0.0106422,8.69941,25.5557,40.1379
-0.0574608,0.392649,9.67257,0.00744957,0.0138349,0.0117065,8.69941,25.5557,40.1379
-0.0526724,0.416591,9.40921,0.00744957,0.0127707,0.0117065,8.69941,25.5557,40.1379
-0.047884,0.402226,9.4954,0.00532112,0.0106422,0.00957802,8.69941,25.5557,40.1379
-0.0766145,0.411803,9.5385,0.00106422,0.0117065,0.00744957,8.69941,25.5557,40.1379
-0.177171,0.445322,9.42358,0.00532112,0.0138349,0.00744957,8.69941,25.5557,40.1379
-0.186748,0.407014,9.52892,0.00638535,0.0117065,0.0117065,8.69941,25.5557,40.1379
-0.138864,0.339977,9.60075,0.00744957,0.0138349,0.0138349,8.69941,25.5557,40.1379
-0.071826,0.35913,9.54329,0.00851379,0.0170276,0.00957802,8.69941,25.5557,40.1379
-0.105345,0.320823,9.58638,0.00532112,0.0148991,0.00532112,8.69941,25.5557,40.1379
-0.0909797,0.45011,9.48583,0.00744957,0.0127707,0.00744957,8.69941,25.5557,40.1379
-0.0430956,0.402226,9.55287,0.00319267,0.0170276,0.00319267,8.69941,25.5557,40.1379
-0.172383,0.392649,9.49062,0.00851379,0.0127707,0.00638535,8.69941,25.5557,40.1379
-0.0526724,0.42138,9.51456,0.0106422,0.0117065,0.00851379,8.69941,25.5557,40.1379
-0.0622492,0.349553,9.48104,0.00638535,0.0117065,0.00957802,8.69941,25.5557,40.1379
-0.0670376,0.45011,9.50498,0.00851379,0.00851379,0.00744957,8.69941,25.5557,40.1379
-0.158017,0.320823,9.64384,0.0106422,0.0127707,0.00532112,8.69941,25.5557,40.1379
-0.153229,0.430956,9.50019,0.00532112,0.0180918,0.00851379,8.69941,25.5557,40.1379
-0.0430956,0.411803,9.54329,0.00957802,0.0138349,0.0106422,8.69941,25.5557,40.1379
-0.0430956,0.335188,9.46188,0.00851379,0.0117065,0.0138349,8.69941,25.5557,40.1379
-0.0814029,0.464475,9.5385,0.00532112,0.0159634,0.0117065,8.69941,25.5557,40.1379
-0.0287304,0.368707,9.37569,0.00851379,0.019156,0.00851379,8.69941,25.5557,40.1379
-0.0909797,0.354342,9.55765,0.00851379,0.0106422,0.00532112,8.69941,25.5557,40.1379
-0.148441,0.426168,9.49062,0.00638535,0.0148991,0.00744957,8.69941,25.5557,40.1379
-0.0861913,0.402226,9.44273,0.00957802,0.0138349,0.00532112,8.69941,25.5557,40.1379
-0.00957681,0.407014,9.47625,0.00532112,0.0138349,0.00638535,8.69941,25.5557,40.1379
-0.0287304,0.35913,9.62948,0.00638535,0.0138349,0.0042569,8.69941,25.5557,40.1379
-0.158017,0.469264,9.68694,0.00532112,0.0159634,0.0127707,8.69941,25.5557,40.1379
-0.134075,0.354342,9.5385,0.00638535,0.00957802,0.0106422,8.69941,25.5557,40.1379
-0.11971,0.320823,9.64384,0.00212845,0.0138349,0.0042569,8.69941,25.5557,40.1379
-0.047884,0.435745,9.40442,0.00851379,0.0138349,0.00638535,8.69941,25.5557,40.1379
-0.0574608,0.354342,9.40921,0.0106422,0.0127707,0.0106422,8.69941,25.5557,40.1379
-0.0383072,0.483629,9.61511,0.00851379,0.0117065,0.0106422,8.69941,25.5557,40.1379
-0.114922,0.440533,9.46188,0.00851379,0.0148991,0.00957802,8.69941,25.5557,40.1379
-0.110133,0.397437,9.51456,0.00638535,0.0127707,0.00744957,8.69941,25.5557,40.1379
-0.0430956,0.402226,9.61033,0.0106422,0.0117065,0.00957802,8.69941,25.5557,40.1379
-0.0766145,0.368707,9.5385,0.00851379,0.0148991,0.00851379,8.69941,25.5557,40.1379
-0.124498,0.368707,9.52413,0.00212845,0.0170276,0.0127707,8.69941,25.5557,40.1379
-0.129287,0.349553,9.56244,0,0.0127707,0.00957802,8.69941,25.5557,40.1379
-0.129287,0.416591,9.64384,0.00319267,0.0127707,0.00532112,8.69941,25.5557,40.1379
-0.167594,0.469264,9.48583,0.0106422,0.0148991,0.00638535,8.69941,25.5557,40.1379
-0.100556,0.320823,9.55287,0.0117065,0.019156,0.0042569,8.69941,25.5557,40.1379
-0.105345,0.440533,9.45231,0.0106422,0.0148991,0.00638535,8.69941,25.5557,40.1379
-0.105345,0.469264,9.48104,0.0106422,0.00957802,0.0042569,8.69941,25.5557,40.1379
-0.158017,0.440533,9.55765,0.00106422,0.0159634,0.00319267,8.69941,25.5557,40.1379
-0.11971,0.416591,9.5816,0.00212845,0.0170276,0.0138349,8.69941,25.5557,40.1379
-0.100556,0.363919,9.5385,0.0117065,0.00957802,0.00638535,8.69941,25.5557,40.1379
-0.0574608,0.440533,9.54329,0.00744957,0.0106422,0.00319267,8.69941,25.5557,40.1379
-0.100556,0.383072,9.73482,0.00532112,0.0148991,0.00957802,8.69941,25.5557,40.1379
-0.124498,0.397437,9.52892,0.00744957,0.0148991,0.00957802,8.69941,25.5557,40.1379
-0.105345,0.440533,9.50019,0.0117065,0.00957802,0.00957802,8.69941,25.5557,40.1379
-0.100556,0.387861,9.48104,0.0106422,0.0148991,0.0106422,8.69941,25.5557,40.1379
-0.196325,0.368707,9.45231,0.00638535,0.0148991,0.00532112,8.69941,25.5557,40.1379
-0.0383072,0.392649,9.4954,0.00532112,0.0127707,0.0127707,8.69941,25.5557,40.1379
-0.134075,0.426168,9.49062,0.00851379,0.0138349,0.0138349,8.69941,25.5557,40.1379
-0.110133,0.373495,9.52413,0.00957802,0.0138349,0.0127707,8.69941,25.5557,40.1379
-0.181959,0.363919,9.55765,0.00532112,0.0159634,0.0106422,8.69941,25.5557,40.1379
-0.100556,0.42138,9.48583,0.00532112,0.0180918,0.0106422,8.69941,25.5557,40.1379
-0.0574608,0.316035,9.57681,0.00851379,0.0138349,0.0106422,8.69941,25.5557,40.1379
-0.158017,0.474052,9.56244,0.00851379,0.0170276,0.0117065,8.69941,25.5557,40.1379
-0.0191536,0.416591,9.35654,0.00638535,0.0127707,0.00957802,8.69941,25.5557,40.1379
-0.124498,0.349553,9.59596,0.00851379,0.0148991,0.00744957,8.69941,25.5557,40.1379
-0.167594,0.354342,9.64384,0.0117065,0.0180918,0.00957802,8.69941,25.5557,40.1379
-0.0287304,0.397437,9.53371,0.00851379,0.0117065,0.0106422,8.69941,25.5557,40.1379
-0.0814029,0.426168,9.55287,0,0.0148991,0.00744957,8.69941,25.5557,40.1379
-0.0191536,0.344765,9.44752,0.0106422,0.0106422,0.00638535,8.69941,25.5557,40.1379
-0.114922,0.296881,9.59117,0.0106422,0.0159634,0.00957802,8.69941,25.5557,40.1379
-0.167594,0.464475,9.49062,0.00851379,0.019156,0.0127707,8.69941,25.5557,40.1379
-0.071826,0.488417,9.36612,0.00851379,0.0148991,0.0148991,8.69941,25.5557,40.1379
-0.134075,0.407014,9.60075,0.0117065,0.0148991,0.0127707,8.69941,25.5557,40.1379
-0.0909797,0.387861,9.4571,0.0042569,0.0170276,0.00851379,8.69941,25.5557,40.1379
-0.0814029,0.42138,9.51456,0.00638535,0.0106422,0.00851379,8.69941,25.5557,40.1379
-0.0622492,0.464475,9.42837,0.0106422,0.0148991,0.00851379,8.69941,25.5557,40.1379
-0.0861913,0.368707,9.42358,0.00957802,0.0212845,0.0138349,8.69941,25.5557,40.1379
-0.124498,0.397437,9.50498,0.00532112,0.0170276,0.0138349,8.69941,25.5557,40.1379
-0.071826,0.344765,9.62469,0.00532112,0.0148991,0.00851379,8.69941,25.5557,40.1379
-0.0670376,0.344765,9.50498,0.00532112,0.0138349,0.00957802,8.69941,25.5557,40.1379
-0.124498,0.383072,9.55287,0.00957802,0.0127707,0.0127707,8.69941,25.5557,40.1379
-0.0861913,0.435745,9.52413,0.00212845,0.0159634,0.00957802,8.69941,25.5557,40.1379
-0.0766145,0.392649,9.58638,0.00532112,0.0127707,0.00957802,8.69941,25.5557,40.1379
-0.100556,0.402226,9.63427,0.00957802,0.0106422,0.00532112,8.69941,25.5557,40.1379
-0.0622492,0.416591,9.48583,0.00744957,0.0148991,0.00744957,8.69941,25.5557,40.1379
-0.124498,0.3304,9.56244,0.00851379,0.0170276,0.00957802,8.69941,25.5557,40.1379
-0.153229,0.407014,9.40921,0.00532112,0.0127707,0.00957802,8.69941,25.5557,40.1379
-0.124498,0.445322,9.62948,0.00851379,0.0148991,0.00957802,8.69941,25.5557,40.1379
-0.0143652,0.411803,9.56244,0.00851379,0.0148991,0.0106422,8.69941,25.5557,40.1379
-0.105345,0.45011,9.64384,0.00532112,0.0148991,0.0127707,8.69941,25.5557,40.1379
-0.114922,0.387861,9.4954,0.00532112,0.0138349,0.00638535,8.69941,25.5557,40.1379
-0.124498,0.411803,9.54329,0.00212845,0.00957802,0.0042569,8.69941,25.5557,40.1379
-0.167594,0.488417,9.54329,0.00532112,0.0138349,0.00532112,8.69941,25.5557,40.1379
-0.0430956,0.407014,9.56244,0.00851379,0.0148991,0.0117065,8.69941,25.5557,40.1379
-0.0622492,0.363919,9.5816,0.0106422,0.0117065,0.00957802,8.69941,25.5557,40.1379
0.0287304,0.316035,9.54808,0.0042569,0.0159634,0.0117065,8.69941,25.5557,40.1379
-0.0909797,0.416591,9.64384,0.00851379,0.0117065,0.0106422,8.69941,25.5557,40.1379
-0.105345,0.344765,9.39485,0.0106422,0.0106422,0.00744957,8.69941,25.5557,40.1379
-0.191536,0.426168,9.57202,0.0127707,0.0159634,0.00851379,8.69941,25.5557,40.1379
-0.100556,0.354342,9.45231,0.0042569,0.0138349,0.00638535,8.69941,25.5557,40.1379
-0.0909797,0.383072,9.55287,0.00532112,0.0117065,0.00532112,8.69941,25.5557,40.1379
-0.0861913,0.411803,9.51456,0.00851379,0.0148991,0.00744957,8.69941,25.5557,40.1379
-0.0766145,0.373495,9.46667,0.00744957,0.0127707,0.0106422,8.69941,25.5557,40.1379
-0.100556,0.344765,9.57202,0.0042569,0.0117065,0.0127707,8.69941,25.5557,40.1379
-0.100556,0.426168,9.59596,0.00851379,0.0127707,0.0138349,8.69941,25.5557,40.1379
-0.0766145,0.325611,9.5816,0.00851379,0.0117065,0.0138349,8.69941,25.5557,40.1379
-0.0670376,0.368707,9.51456,0.00638535,0.0159634,0.00957802,8.69941,25.5557,40.1379
-0.124498,0.430956,9.47625,0,0.0159634,0.0117065,8.69941,25.5557,40.1379
-0.0670376,0.42138,9.49062,0.0042569,0.0117065,0.0106422,8.69941,25.5557,40.1379
-0.047884,0.411803,9.50977,0.00638535,0.0117065,0.00532112,8.69941,25.5557,40.1379
-0.134075,0.469264,9.55765,0.00532112,0.0170276,0.00212845,8.69941,25.5557,40.1379
-0.143652,0.392649,9.39964,0.00106422,0.0148991,0.00638535,8.69941,25.5557,40.1379
-0.148441,0.45011,9.43794,0.00638535,0.0127707,0.00638535,8.69941,25.5557,40.1379
-0.11971,0.344765,9.40442,0.00744957,0.00851379,0.00638535,8.69941,25.5557,40.1379
-0.0526724,0.325611,9.43315,0.00957802,0.0138349,0.0106422,8.69941,25.5557,40.1379
0,0.402226,9.62469,0.00957802,0.0148991,0.00744957,5.68125,25.7344,39.9656
-0.114922,0.397437,9.55765,0.00638535,0.0148991,0.00744957,5.68125,25.7344,39.9656
-0.0909797,0.387861,9.50019,0.0117065,0.0148991,0.00851379,5.68125,25.7344,39.9656
-0.153229,0.316035,9.50977,0.00851379,0.0148991,0.00532112,5.68125,25.7344,39.9656
-0.0814029,0.368707,9.64863,0.00638535,0.0159634,0.00744957,5.68125,25.7344,39.9656
-0.0622492,0.411803,9.49062,0.00851379,0.00638535,0.0117065,5.68125,25.7344,39.9656
-0.172383,0.435745,9.59596,0.00851379,0.0106422,0.00957802,5.68125,25.7344,39.9656
-0.0430956,0.407014,9.52413,0.00851379,0.0138349,0.00957802,5.68125,25.7344,39.9656
-0.071826,0.335188,9.53371,0.0042569,0.0159634,0.0127707,5.68125,25.7344,39.9656
-0.124498,0.383072,9.51456,0.00638535,0.0148991,0.00957802,5.68125,25.7344,39.9656
-0.11971,0.392649,9.72525,0.00638535,0.0138349,0.00744957,5.68125,25.7344,39.9656
-0.138864,0.42138,9.62948,0.00851379,0.0138349,0.00957802,5.68125,25.7344,39.9656
-0.100556,0.402226,9.50498,0.00532112,0.0127707,0.00957802,5.68125,25.7344,39.9656
-0.0909797,0.397437,9.46667,0.00957802,0.0127707,0.00957802,5.68125,25.7344,39.9656
-0.071826,0.407014,9.47625,0.00638535,0.0159634,0.00957802,5.68125,25.7344,39.9656
-0.105345,0.373495,9.4954,0.00638535,0.0127707,0.0138349,5.68125,25.7344,39.9656
-0.0287304,0.339977,9.46188,0.00957802,0.0117065,0.0117065,5.68125,25.7344,39.9656
-0.0191536,0.426168,9.47625,0.00212845,0.0180918,0.00638535,5.68125,25.7344,39.9656
-0.0574608,0.42138,9.53371,0.0042569,0.019156,0.0117065,5.68125,25.7344,39.9656
-0.138864,0.464475,9.53371,0.00744957,0.0159634,0.0106422,5.68125,25.7344,39.9656
-0.0814029,0.320823,9.5816,0.00744957,0.0106422,0.00744957,5.68125,25.7344,39.9656
-0.0526724,0.402226,9.55765,0.00744957,0.00957802,0.0117065,5.68125,25.7344,39.9656
-0.110133,0.445322,9.56244,0.00744957,0.0148991,0.00744957,5.68125,25.7344,39.9656
-0.138864,0.435745,9.47625,0.00851379,0.0148991,0.00744957,5.68125,25.7344,39.9656
-0.153229,0.454898,9.50977,0.00851379,0.0159634,0.0117065,5.68125,25.7344,39.9656
-0.071826,0.440533,9.61511,0.00532112,0.019156,0.00319267,5.68125,25.7344,39.9656
-0.11971,0.392649,9.38048,0.00638535,0.0127707,0.00638535,5.68125,25.7344,39.9656
-0.196325,0.277727,9.50498,0.00744957,0.0148991,0.00851379,5.68125,25.7344,39.9656
0,0.344765,9.52413,0.00851379,0.0148991,0.0117065,5.68125,25.7344,39.9656
-0.129287,0.354342,9.55765,0.0106422,0.0127707,0.0117065,5.68125,25.7344,39.9656
-0.114922,0.392649,9.63906,0.00957802,0.0148991,0.00851379,5.68125,25.7344,39.9656
0.0574608,0.392649,9.54808,0.00744957,0.0127707,0.00851379,5.68125,25.7344,39.9656
-0.0191536,0.320823,9.48583,0.00212845,0.00957802,0.00744957,5.68125,25.7344,39.9656
-0.047884,0.411803,9.64863,0.00957802,0.0148991,0.00851379,5.68125,25.7344,39.9656
-0.0909797,0.368707,9.38527,0.0127707,0.0212845,0.0159634,5.68125,25.7344,39.9656
-0.0766145,0.349553,9.414,0.0042569,0.0138349,0.0106422,5.68125,25.7344,39.9656
-0.129287,0.445322,9.44752,0.0042569,0.0148991,0.00638535,5.68125,25.7344,39.9656
-0.0766145,0.392649,9.68694,0.00851379,0.0138349,0.00319267,5.68125,25.7344,39.9656
-0.0526724,0.435745,9.52892,0.00638535,0.0138349,0.00638535,5.68125,25.7344,39.9656
-0.0430956,0.445322,9.4571,0.00532112,0.0106422,0.00957802,5.68125,25.7344,39.9656
-0.21069,0.397437,9.54329,0.00851379,0.0138349,0.00957802,5.68125,25.7344,39.9656
-0.129287,0.368707,9.58638,0.00957802,0.0138349,0.00851379,5.68125,25.7344,39.9656
-0.129287,0.325611,9.38527,0.00532112,0.0117065,0.0106422,5.68125,25.7344,39.9656
-0.0622492,0.464475,9.60554,0.00532112,0.0127707,0.00744957,5.68125,25.7344,39.9656
-0.0766145,0.363919,9.38048,0.00638535,0.0117065,0.00851379,5.68125,25.7344,39.9656
-0.0861913,0.392649,9.56244,0.00638535,0.00957802,0.00744957,5.68125,25.7344,39.9656
-0.134075,0.426168,9.49062,0.00744957,0.0138349,0.0117065,5.68125,25.7344,39.9656
-0.11971,0.435745,9.53371,0.00957802,0.0170276,0.00957802,5.68125,25.7344,39.9656
-0.110133,0.454898,9.49062,0.00744957,0.0127707,0.00744957,5.68125,25.7344,39.9656
-0.0622492,0.426168,9.52413,0.00638535,0.0148991,0.00957802,5.68125,25.7344,39.9656
-0.143652,0.349553,9.4571,0.0042569,0.0148991,0.00957802,5.68125,25.7344,39.9656
-0.134075,0.407014,9.36133,0.00851379,0.0159634,0.0106422,5.68125,25.7344,39.9656
-0.0909797,0.42138,9.48583,0.00638535,0.0138349,0.0127707,5.68125,25.7344,39.9656
-0.134075,0.387861,9.42837,0.00532112,0.00957802,0.00957802,5.68125,25.7344,39.9656
-0.110133,0.383072,9.48104,0.00532112,0.0117065,0.00744957,5.68125,25.7344,39.9656
-0.0047884,0.335188,9.47625,0.00957802,0.0106422,0.0117065,5.68125,25.7344,39.9656
-0.0814029,0.3304,9.46188,0.00319267,0.00638535,0.00851379,5.68125,25.7344,39.9656
-0.0814029,0.42138,9.58638,0.00851379,0.0148991,0.0117065,5.68125,25.7344,39.9656
-0.0814029,0.368707,9.63427,0.0106422,0.0170276,0.00957802,5.68125,25.7344,39.9656
-0.143652,0.440533,9.57681,0.00532112,0.0159634,0.00638535,5.68125,25.7344,39.9656
-0.11971,0.335188,9.53371,0.00532112,0.0106422,0.00532112,5.68125,25.7344,39.9656
-0.0526724,0.383072,9.5385,0.00319267,0.0138349,0.0127707,5.68125,25.7344,39.9656
-0.177171,0.416591,9.43794,0.00957802,0.00957802,0.00851379,5.68125,25.7344,39.9656
-0.0287304,0.339977,9.62948,0.00319267,0.0138349,0.0042569,5.68125,25.7344,39.9656
-0.134075,0.373495,9.50498,0.00319267,0.0138349,0.00851379,5.68125,25.7344,39.9656
-0.105345,0.392649,9.46188,0.0042569,0.0138349,0.0127707,5.68125,25.7344,39.9656
-0.215478,0.268151,9.414,0.0042569,0.0138349,0.00532112,5.68125,25.7344,39.9656
-0.0670376,0.445322,9.55287,0.0042569,0.0170276,0.00851379,5.68125,25.7344,39.9656
-0.023942,0.335188,9.50977,0.00532112,0.0159634,0.0148991,5.68125,25.7344,39.9656
-0.129287,0.440533,9.50019,0.00851379,0.0138349,0.0127707,5.68125,25.7344,39.9656
-0.138864,0.373495,9.50019,0.00851379,0.0138349,0.00851379,5.68125,25.7344,39.9656
-0.172383,0.383072,9.4571,0.00851379,0.0138349,0.0117065,5.68125,25.7344,39.9656
-0.0814029,0.416591,9.54808,0.00851379,0.0138349,0.0106422,5.68125,25.7344,39.9656
-0.0670376,0.397437,9.61033,0.00744957,0.00851379,0.00638535,5.68125,25.7344,39.9656
-0.134075,0.402226,9.50498,0.00638535,0.0127707,0.00532112,5.68125,25.7344,39.9656
-0.143652,0.301669,9.45231,0.0106422,0.0170276,0.00957802,5.68125,25.7344,39.9656
-0.100556,0.483629,9.5385,0.00957802,0.0170276,0.00319267,5.68125,25.7344,39.9656
-0.0143652,0.344765,9.61033,0.00319267,0.0127707,0.0042569,5.68125,25.7344,39.9656
-0.124498,0.373495,9.45231,0.00638535,0.0127707,0.00957802,5.68125,25.7344,39.9656
-0.0861913,0.445322,9.414,0.0042569,0.0117065,0.0127707,5.68125,25.7344,39.9656
-0.0526724,0.383072,9.40442,0.00744957,0.0117065,0.00638535,5.68125,25.7344,39.9656
-0.138864,0.435745,9.52413,0.0127707,0.0170276,0.00532112,5.68125,25.7344,39.9656
-0.143652,0.407014,9.52413,0.00744957,0.0138349,0.00851379,5.68125,25.7344,39.9656
-0.0861913,0.349553,9.53371,0.00851379,0.0127707,0.0117065,5.68125,25.7344,39.9656
-0.0670376,0.383072,9.43794,0.0106422,0.0117065,0.0106422,5.68125,25.7344,39.9656
-0.100556,0.397437,9.61033,0.00851379,0.0127707,0.0106422,5.68125,25.7344,39.9656
-0.114922,0.402226,9.57681,0.00532112,0.0127707,0.00851379,5.68125,25.7344,39.9656
-0.114922,0.411803,9.5816,0.00851379,0.0117065,0.00212845,5.68125,25.7344,39.9656
-0.047884,0.349553,9.59596,0.00851379,0.0180918,0.00212845,5.68125,25.7344,39.9656
0.0191536,0.383072,9.663,0.00638535,0.0148991,0.00744957,5.68125,25.7344,39.9656
-0.11971,0.42138,9.55765,0.00957802,0.0117065,0.0117065,5.68125,25.7344,39.9656
-0.153229,0.454898,9.65342,0.00532112,0.0117065,0.00744957,5.68125,25.7344,39.9656
-0.047884,0.335188,9.54808,0.00851379,0.0148991,0.0042569,5.68125,25.7344,39.9656
-0.105345,0.316035,9.48104,0.00957802,0.0180918,0.00851379,5.68125,25.7344,39.9656
-0.124498,0.397437,9.63427,0.00957802,0.00851379,0.0117065,5.68125,25.7344,39.9656
-0.0526724,0.440533,9.54329,0.0042569,0.0106422,0.0117065,5.68125,25.7344,39.9656
-0.100556,0.320823,9.48104,0.00851379,0.0117065,0.0117065,5.68125,25.7344,39.9656
-0.0670376,0.368707,9.55287,0.00744957,0.0159634,0.0042569,5.68125,25.7344,39.9656
-0.172383,0.277727,9.65342,0.0042569,0.0170276,0.00744957,5.68125,25.7344,39.9656
-0.153229,0.493206,9.59117,0.00638535,0.0170276,0.00957802,5.68125,25.7344,39.9656
-0.105345,0.435745,9.59596,0.00532112,0.0170276,0.0106422,5.68125,25.7344,39.9656
-0.0622492,0.445322,9.53371,0.00851379,0.0127707,0.00744957,5.68125,25.7344,39.9656
-0.110133,0.392649,9.53371,0.00106422,0.019156,0.00532112,5.68125,25.7344,39.9656
-0.0526724,0.373495,9.62948,0.00319267,0.0148991,0.00851379,5.68125,25.7344,39.9656
-0.0670376,0.45011,9.43794,0.00851379,0.0117065,0.00851379,5.68125,25.7344,39.9656
-0.158017,0.316035,9.54329,0.00957802,0.0117065,0.00957802,5.68125,25.7344,39.9656
-0.0909797,0.349553,9.64384,0.00744957,0.0159634,0.0127707,5.68125,25.7344,39.9656
-0.105345,0.387861,9.40921,0.00957802,0.0138349,0.00851379,5.68125,25.7344,39.9656
-0.138864,0.368707,9.57681,0.00744957,0.0159634,0.00744957,5.68125,25.7344,39.9656
-0.124498,0.373495,9.32781,0.00319267,0.0138349,0.00638535,5.68125,25.7344,39.9656
-0.153229,0.469264,9.62469,0.00532112,0.0138349,0.00957802,5.68125,25.7344,39.9656
-0.138864,0.35913,9.50019,0.00744957,0.0148991,0.0138349,5.68125,25.7344,39.9656
-0.153229,0.445322,9.60554,0.00744957,0.0159634,0.00851379,5.68125,25.7344,39.9656
-0.0383072,0.383072,9.59117,0.00744957,0.0148991,0.00851379,5.68125,25.7344,39.9656
-0.0383072,0.349553,9.57202,0.00744957,0.0212845,0.00957802,5.68125,25.7344,39.9656
-0.196325,0.397437,9.57681,0.00532112,0.0170276,0.00957802,5.68125,25.7344,39.9656
-0.181959,0.383072,9.50977,0.00638535,0.0127707,0.0106422,5.68125,25.7344,39.9656
-0.105345,0.435745,9.53371,0.00638535,0.00851379,0.00851379,5.68125,25.7344,39.9656
-0.0047884,0.349553,9.44273,0.00532112,0.0106422,0.00212845,5.68125,25.7344,39.9656
-0.100556,0.320823,9.46667,0.00532112,0.0170276,0.00319267,5.68125,25.7344,39.9656
-0.138864,0.464475,9.63906,0.00638535,0.0117065,0.00851379,5.68125,25.7344,39.9656
-0.143652,0.426168,9.46667,0.00319267,0.0127707,0.0042569,5.68125,25.7344,39.9656
-0.047884,0.339977,9.50019,0.0042569,0.0170276,0.00851379,5.68125,25.7344,39.9656
-0.100556,0.373495,9.40921,0.00638535,0.0159634,0.0106422,5.68125,25.7344,39.9656
-0.0766145,0.407014,9.5816,0.0117065,0.0138349,0.0106422,5.68125,25.7344,39.9656
-0.186748,0.435745,9.49062,0.0117065,0.0159634,0.00851379,5.68125,25.7344,39.9656
-0.129287,0.368707,9.61033,0.00744957,0.0148991,0.0106422,5.68125,25.7344,39.9656
-0.0670376,0.392649,9.55287,0.00638535,0.0127707,0.00851379,5.68125,25.7344,39.9656
-0.114922,0.402226,9.67257,0.00638535,0.0148991,0.00851379,5.68125,25.7344,39.9656
-0.0670376,0.411803,9.49062,0.00319267,0.0148991,0.00851379,5.68125,25.7344,39.9656
-0.0622492,0.373495,9.54808,0.00532112,0.0127707,0.00638535,5.68125,25.7344,39.9656
-0.0909797,0.517148,9.47625,0.00957802,0.0138349,0.00744957,5.68125,25.7344,39.9656
-0.134075,0.430956,9.55765,0.00532112,0.0138349,0.00638535,5.68125,25.7344,39.9656
-0.0766145,0.35913,9.43315,0.00851379,0.0159634,0.00957802,5.68125,25.7344,39.9656
-0.143652,0.387861,9.4954,0.0106422,0.0148991,0.00957802,5.68125,25.7344,39.9656
-0.0814029,0.311246,9.37569,0.00957802,0.0127707,0.0117065,5.68125,25.7344,39.9656
-0.153229,0.325611,9.50498,0.00532112,0.0159634,0.00851379,5.68125,25.7344,39.9656
-0.11971,0.387861,9.59117,0.00638535,0.0117065,0.0127707,5.68125,25.7344,39.9656
-0.124498,0.407014,9.55287,0.00744957,0.0117065,0.00851379,5.68125,25.7344,39.9656
-0.071826,0.383072,9.63906,0.00638535,0.0159634,0.00638535,5.68125,25.7344,39.9656
-0.0670376,0.416591,9.46667,0.0106422,0.0159634,0.00851379,5.68125,25.7344,39.9656
-0.0670376,0.339977,9.5385,0.00957802,0.0106422,0.0127707,5.68125,25.7344,39.9656
-0.134075,0.397437,9.4954,0.00532112,0.0117065,0.0127707,5.68125,25.7344,39.9656
-0.138864,0.335188,9.48583,0.00744957,0.0148991,0.0106422,5.68125,25.7344,39.9656
-0.114922,0.368707,9.47625,0.00638535,0.0127707,0.00957802,5.68125,25.7344,39.9656
-0.124498,0.426168,9.50977,0.00744957,0.0117065,0.00851379,5.68125,25.7344,39.9656
-0.129287,0.426168,9.4954,0.00744957,0.019156,0.0042569,5.68125,25.7344,39.9656
-0.0622492,0.349553,9.663,0,0.0148991,0.00851379,5.68125,25.7344,39.9656
-0.201113,0.445322,9.57681,0.00744957,0.0117065,0.0106422,5.68125,25.7344,39.9656
-0.124498,0.363919,9.50019,0.0148991,0.0127707,0.00851379,5.68125,25.7344,39.9656
-0.0766145,0.387861,9.5385,0.00957802,0.0170276,0.0117065,5.68125,25.7344,39.9656
-0.158017,0.3304,9.48583,0.0042569,0.0170276,0.0117065,5.68125,25.7344,39.9656
0.00957681,0.387861,9.51456,0.00532112,0.0159634,0.00532112,5.68125,25.7344,39.9656
0.0287304,0.339977,9.31344,0.00532112,0.0159634,0.00532112,5.68125,25.7344,39.9656
-0.0670376,0.426168,9.47625,0.00638535,0.0138349,0.00851379,5.68125,25.7344,39.9656
-0.0526724,0.426168,9.56244,0.00638535,0.0127707,0.0117065,5.68125,25.7344,39.9656
-0.114922,0.387861,9.51456,0.00744957,0.0148991,0.00744957,5.68125,25.7344,39.9656
-0.114922,0.397437,9.5385,0.00744957,0.00532112,0.0106422,5.68125,25.7344,39.9656
-0.0143652,0.392649,9.55765,0.00957802,0.00957802,0.0106422,5.68125,25.7344,39.9656
-0.0909797,0.440533,9.52892,0.00638535,0.0159634,0.0106422,5.68125,25.7344,39.9656
-0.153229,0.407014,9.50977,0.00957802,0.0127707,0.0138349,5.68125,25.7344,39.9656
-0.167594,0.311246,9.45231,0.00532112,0.0159634,0.0106422,5.68125,25.7344,39.9656
-0.0430956,0.426168,9.49062,0.00638535,0.0138349,0.0106422,5.68125,25.7344,39.9656
-0.0670376,0.320823,9.48104,0.0106422,0.0148991,0.0106422,5.68125,25.7344,39.9656
-0.0670376,0.392649,9.60075,0.0117065,0.0148991,0.00957802,5.68125,25.7344,39.9656
-0.129287,0.387861,9.54329,0.00638535,0.0138349,0.00851379,5.68125,25.7344,39.9656
-0.100556,0.402226,9.45231,0.00532112,0.0138349,0.00851379,5.68125,25.7344,39.9656
-0.0766145,0.488417,9.59117,0.00851379,0.0117065,0.0117065,5.68125,25.7344,39.9656
-0.138864,0.344765,9.39006,0.00638535,0.0106422,0.00532112,5.68125,25.7344,39.9656
0.0191536,0.397437,9.47625,0.0117065,0.0127707,0.00744957,5.68125,25.7344,39.9656
-0.0909797,0.354342,9.44273,0.00957802,0.0159634,0.0127707,5.68125,25.7344,39.9656
-0.110133,0.464475,9.52892,0.00851379,0.0117065,0.0106422,5.68125,25.7344,39.9656
-0.0287304,0.426168,9.46188,0.00532112,0.0127707,0.00957802,5.68125,25.7344,39.9656
-0.105345,0.416591,9.48104,0.0042569,0.0180918,0.0106422,5.68125,25.7344,39.9656
-0.0383072,0.3304,9.62469,0.00638535,0.0202203,0.00744957,7.2791,27.3428,39.7934
-0.0287304,0.445322,9.57681,0.0042569,0.0117065,0.00957802,7.2791,27.3428,39.7934
-0.0861913,0.464475,9.5816,0.0042569,0.0117065,0.00957802,7.2791,27.3428,39.7934
-0.0814029,0.3304,9.59596,0.00638535,0.0159634,0.00744957,7.2791,27.3428,39.7934
-0.110133,0.397437,9.55287,0.00744957,0.0106422,0.0117065,7.2791,27.3428,39.7934
-0.0861913,0.373495,9.60554,0.00957802,0.0148991,0.00851379,7.2791,27.3428,39.7934
-0.0909797,0.325611,9.64384,0.00532112,0.0159634,0.00744957,7.2791,27.3428,39.7934
-0.0526724,0.383072,9.61511,0.00532112,0.0159634,0.00851379,7.2791,27.3428,39.7934
-0.134075,0.416591,9.48583,0.00638535,0.0159634,0.00744957,7.2791,27.3428,39.7934
-0.023942,0.474052,9.49062,0.00957802,0.00957802,0.0106422,7.2791,27.3428,39.7934
-0.124498,0.430956,9.65342,0.0106422,0.0138349,0.00851379,7.2791,27.3428,39.7934
-0.0574608,0.397437,9.55765,0.00957802,0.0117065,0.00957802,7.2791,27.3428,39.7934
-0.0766145,0.411803,9.4954,0.00532112,0.0148991,0.0117065,7.2791,27.3428,39.7934
-0.0526724,0.383072,9.50977,0.00319267,0.0117065,0.00851379,7.2791,27.3428,39.7934
-0.0574608,0.430956,9.48104,0.0042569,0.0127707,0.0138349,7.2791,27.3428,39.7934
-0.191536,0.397437,9.5816,0.0042569,0.0148991,0.00851379,7.2791,27.3428,39.7934
-0.21069,0.411803,9.54329,0.0042569,0.0138349,0.00744957,7.2791,27.3428,39.7934
-0.0287304,0.301669,9.46667,0.00851379,0.0138349,0.0042569,7.2791,27.3428,39.7934
-0.0526724,0.435745,9.48104,0.0117065,0.0117065,0.00851379,7.2791,27.3428,39.7934
-0.0574608,0.368707,9.59117,0.0117065,0.0106422,0.0159634,7.2791,27.3428,39.7934
-0.0766145,0.464475,9.38527,0.00638535,0.0148991,0.00744957,7.2791,27.3428,39.7934
-0.0526724,0.469264,9.51456,0.00532112,0.0127707,0.00638535,7.2791,27.3428,39.7934
-0.0909797,0.325611,9.52892,0.00638535,0.0138349,0.00957802,7.2791,27.3428,39.7934
-0.0622492,0.35913,9.68215,0.00957802,0.0180918,0.0106422,7.2791,27.3428,39.7934
-0.071826,0.373495,9.42837,0.00957802,0.0170276,0.00957802,7.2791,27.3428,39.7934
-0.047884,0.392649,9.5385,0.00319267,0.0148991,0.0106422,7.2791,27.3428,39.7934
-0.110133,0.47884,9.53371,0.00638535,0.0159634,0.0138349,7.2791,27.3428,39.7934
-0.0909797,0.507571,9.4954,0.00744957,0.0148991,0.00957802,7.2791,27.3428,39.7934
-0.11971,0.363919,9.63427,0.00532112,0.0148991,0.0106422,7.2791,27.3428,39.7934
-0.167594,0.387861,9.61511,0.00744957,0.0127707,0.0127707,7.2791,27.3428,39.7934
-0.0526724,0.47884,9.5816,0.00851379,0.0106422,0.0117065,7.2791,27.3428,39.7934
-0.143652,0.373495,9.35654,0.00957802,0.0138349,0.00638535,7.2791,27.3428,39.7934
-0.0814029,0.35913,9.4571,0.00532112,0.0138349,0.00744957,7.2791,27.3428,39.7934
-0.047884,0.469264,9.48583,0.00319267,0.0117065,0.00744957,7.2791,27.3428,39.7934
-0.0766145,0.426168,9.55765,0.00532112,0.0148991,0.00532112,7.2791,27.3428,39.7934
-0.110133,0.387861,9.39006,0.00851379,0.0159634,0.00851379,7.2791,27.3428,39.7934
-0.0191536,0.411803,9.5385,0.00638535,0.0148991,0.0127707,7.2791,27.3428,39.7934
-0.114922,0.3304,9.55765,0.0042569,0.0159634,0.0117065,7.2791,27.3428,39.7934
-0.0574608,0.402226,9.53371,0.00744957,0.0127707,0.00532112,7.2791,27.3428,39.7934
-0.177171,0.387861,9.54329,0.00851379,0.0127707,0.00957802,7.2791,27.3428,39.7934
-0.105345,0.368707,9.64384,0.00957802,0.0138349,0.00851379,7.2791,27.3428,39.7934
-0.047884,0.407014,9.45231,0.00957802,0.0170276,0.0138349,7.2791,27.3428,39.7934
-0.071826,0.397437,9.61033,0.00532112,0.0127707,0.00851379,7.2791,27.3428,39.7934
-0.110133,0.349553,9.46188,0.00638535,0.0117065,0.00532112,7.2791,27.3428,39.7934
-0.0861913,0.368707,9.5385,0.00744957,0.00957802,0.00638535,7.2791,27.3428,39.7934
-0.0526724,0.440533,9.58638,0.00638535,0.0138349,0.00851379,7.2791,27.3428,39.7934
0,0.339977,9.68694,0.0042569,0.0127707,0.00957802,7.2791,27.3428,39.7934
-0.0287304,0.368707,9.39006,0.00319267,0.0148991,0.00851379,7.2791,27.3428,39.7934
-0.023942,0.411803,9.49062,0.00744957,0.0117065,0.00638535,7.2791,27.3428,39.7934
-0.100556,0.368707,9.5816,0.0106422,0.0138349,0.00744957,7.2791,27.3428,39.7934
-0.129287,0.344765,9.44752,0.00851379,0.0202203,0.00851379,7.2791,27.3428,39.7934
-0.0861913,0.3304,9.47625,0.00744957,0.0117065,0.0106422,7.2791,27.3428,39.7934
-0.0622492,0.435745,9.57202,0.00532112,0.0106422,0.00957802,7.2791,27.3428,39.7934
-0.105345,0.354342,9.56244,0.00851379,0.0159634,0.0106422,7.2791,27.3428,39.7934
-0.0670376,0.464475,9.60075,0.00532112,0.0159634,0.00851379,7.2791,27.3428,39.7934
-0.138864,0.35913,9.39006,0.00957802,0.0138349,0.00957802,7.2791,27.3428,39.7934
-0.110133,0.430956,9.53371,0.00638535,0.0138349,0.00957802,7.2791,27.3428,39.7934
-0.0909797,0.454898,9.59117,0.00851379,0.0138349,0.0117065,7.2791,27.3428,39.7934
0.0047884,0.387861,9.55287,0.00851379,0.0180918,0.0117065,7.2791,27.3428,39.7934
-0.0766145,0.392649,9.50977,0.00744957,0.0117065,0.0106422,7.2791,27.3428,39.7934
-0.134075,0.397437,9.5816,0.0127707,0.0106422,0.0106422,7.2791,27.3428,39.7934
-0.158017,0.392649,9.48104,0.0117065,0.0138349,0.00851379,7.2791,27.3428,39.7934
-0.110133,0.411803,9.39964,0.00532112,0.0148991,0.0106422,7.2791,27.3428,39.7934
-0.0909797,0.311246,9.50977,0.00106422,0.0138349,0.00319267,7.2791,27.3428,39.7934
-0.0909797,0.296881,9.54808,0.00744957,0.0127707,0.00638535,7.2791,27.3428,39.7934
-0.143652,0.383072,9.30866,0.00957802,0.0159634,0.00957802,7.2791,27.3428,39.7934
-0.071826,0.306458,9.55765,0.0117065,0.0170276,0.00851379,7.2791,27.3428,39.7934
-0.201113,0.497994,9.663,0.0138349,0.0180918,0.00638535,7.2791,27.3428,39.7934
-0.0909797,0.35913,9.55287,0.00319267,0.0106422,0.00957802,7.2791,27.3428,39.7934
-0.129287,0.287304,9.414,0.00532112,0.0117065,0.0138349,7.2791,27.3428,39.7934
-0.110133,0.383072,9.44752,0.00957802,0.0170276,0.00957802,7.2791,27.3428,39.7934
-0.110133,0.426168,9.60554,0.0117065,0.019156,0.0106422,7.2791,27.3428,39.7934
-0.143652,0.349553,9.48583,0.0117065,0.0159634,0.00532112,7.2791,27.3428,39.7934
-0.110133,0.373495,9.52413,0.00319267,0.0117065,0.00638535,7.2791,27.3428,39.7934
-0.100556,0.426168,9.42837,0.0042569,0.0159634,0.00744957,7.2791,27.3428,39.7934
-0.0622492,0.454898,9.414,0.00957802,0.0148991,0.00851379,7.2791,27.3428,39.7934
-0.0191536,0.430956,9.65342,0.0138349,0.0127707,0.00851379,7.2791,27.3428,39.7934
-0.0287304,0.368707,9.63906,0.00851379,0.0127707,0.0117065,7.2791,27.3428,39.7934
-0.172383,0.373495,9.46188,0.0042569,0.0180918,0.0106422,7.2791,27.3428,39.7934
-0.153229,0.349553,9.55765,0.0042569,0.0148991,0.00957802,7.2791,27.3428,39.7934
-0.114922,0.464475,9.56244,0.00638535,0.0117065,0.00851379,7.2791,27.3428,39.7934
-0.0287304,0.383072,9.43794,0.00851379,0.0127707,0.0138349,7.2791,27.3428,39.7934
-0.100556,0.407014,9.59117,0.00638535,0.0138349,0.0106422,7.2791,27.3428,39.7934
-0.0909797,0.320823,9.50977,0.0042569,0.0159634,0.00638535,7.2791,27.3428,39.7934
-0.11971,0.368707,9.54329,0.00638535,0.0180918,0.00532112,7.2791,27.3428,39.7934
-0.181959,0.373495,9.57681,0.00851379,0.0127707,0.0106422,7.2791,27.3428,39.7934
-0.105345,0.316035,9.60554,0.0042569,0.0106422,0.0106422,7.2791,25.5557,39.7934
0.0047884,0.42138,9.46188,0.00957802,0.0106422,0.00957802,7.2791,25.5557,39.7934
-0.100556,0.344765,9.55287,0.00744957,0.0117065,0.00957802,7.2791,25.5557,39.7934
-0.129287,0.373495,9.60554,0.00744957,0.0117065,0.00638535,7.2791,25.5557,39.7934
-0.0670376,0.430956,9.50019,0.00319267,0.0159634,0.00744957,7.2791,25.5557,39.7934
-0.0526724,0.392649,9.52892,0.00319267,0.0127707,0.00851379,7.2791,25.5557,39.7934
-0.148441,0.416591,9.56244,0.0042569,0.0106422,0.0117065,7.2791,25.5557,39.7934
-0.114922,0.3304,9.44273,0.00851379,0.0117065,0.0106422,7.2791,25.5557,39.7934
-0.0909797,0.287304,9.50977,0.00744957,0.0170276,0.0106422,7.2791,25.5557,39.7934
-0.100556,0.445322,9.64863,0.0106422,0.0117065,0.0106422,7.2791,25.5557,39.7934
-0.100556,0.397437,9.52892,0.00319267,0.0138349,0.0106422,7.2791,25.5557,39.7934
-0.100556,0.411803,9.55765,0.00319267,0.0117065,0.0106422,7.2791,25.5557,39.7934
-0.0526724,0.493206,9.5816,0.00106422,0.0127707,0.00744957,7.2791,25.5557,39.7934
-0.100556,0.311246,9.51456,0.00957802,0.0138349,0.00957802,7.2791,25.5557,39.7934
-0.114922,0.411803,9.4954,0.00638535,0.0148991,0.00957802,7.2791,25.5557,39.7934
-0.0622492,0.402226,9.60075,0.0106422,0.0159634,0.0127707,7.2791,25.5557,39.7934
-0.138864,0.464475,9.47625,0.00638535,0.0138349,0.00851379,7.2791,25.5557,39.7934
-0.124498,0.368707,9.46667,0.00212845,0.0138349,0.00851379,7.2791,25.5557,39.7934
-0.0814029,0.349553,9.52413,0.0127707,0.0170276,0.00851379,7.2791,25.5557,39.7934
-0.134075,0.47884,9.4954,0.00744957,0.0127707,0.00532112,7.2791,25.5557,39.7934
-0.148441,0.344765,9.50019,0.00851379,0.0138349,0.0117065,7.2791,25.5557,39.7934
-0.143652,0.45011,9.50019,0.00638535,0.0127707,0.00744957,7.2791,25.5557,39.7934
-0.100556,0.402226,9.68694,0.00532112,0.0159634,0.0138349,7.2791,25.5557,39.7934
-0.0622492,0.402226,9.46667,0.00851379,0.0106422,0.0106422,7.2791,25.5557,39.7934
-0.071826,0.316035,9.48583,0.0042569,0.00744957,0.00532112,7.2791,25.5557,39.7934
-0.071826,0.349553,9.53371,0.00744957,0.0138349,0.0117065,7.2791,25.5557,39.7934
-0.153229,0.344765,9.43794,0.0117065,0.0170276,0.0106422,7.2791,25.5557,39.7934
-0.0766145,0.426168,9.47625,0.00851379,0.0170276,0.00957802,7.2791,25.5557,39.7934
-0.114922,0.416591,9.39964,0.00851379,0.0138349,0.00638535,7.2791,25.5557,39.7934
-0.0574608,0.411803,9.49062,0.00851379,0.0170276,0.00957802,7.2791,25.5557,39.7934
-0.100556,0.426168,9.39964,0.00532112,0.0117065,0.00744957,7.2791,25.5557,39.7934
-0.0814029,0.392649,9.60075,0.00532112,0.0106422,0.0117065,7.2791,25.5557,39.7934
-0.105345,0.47884,9.49062,0.00532112,0.00957802,0.0106422,7.2791,25.5557,39.7934
-0.105345,0.320823,9.55287,0.00532112,0.0117065,0.00638535,7.2791,25.5557,39.7934
-0.0622492,0.435745,9.44273,0.0117065,0.0148991,0.00638535,7.2791,25.5557,39.7934
-0.0670376,0.344765,9.50019,0.0117065,0.0127707,0.00957802,7.2791,25.5557,39.7934
-0.0909797,0.387861,9.32781,0.00851379,0.0127707,0.0106422,7.2791,25.5557,39.7934
-0.0622492,0.402226,9.47625,0.00744957,0.0148991,0.0106422,7.2791,25.5557,39.7934
-0.177171,0.335188,9.44752,0.00851379,0.0117065,0.0138349,7.2791,25.5557,39.7934
-0.181959,0.3304,9.57202,0.00638535,0.0127707,0.0106422,7.2791,25.5557,39.7934
-0.0526724,0.320823,9.64863,0.0117065,0.0170276,0.0117065,7.2791,25.5557,39.7934
-0.114922,0.325611,9.57202,0.00744957,0.0180918,0.00851379,7.2791,25.5557,39.7934
-0.0622492,0.335188,9.56244,0.00638535,0.0148991,0.00851379,7.2791,25.5557,39.7934
-0.191536,0.45011,9.57681,0.00638535,0.0159634,0.00957802,7.2791,25.5557,39.7934
-0.0814029,0.373495,9.67257,0.0127707,0.0117065,0.0106422,7.2791,25.5557,39.7934
-0.0861913,0.454898,9.51456,0.00744957,0.0106422,0.0106422,7.2791,25.5557,39.7934
-0.0622492,0.373495,9.59596,0.00532112,0.0138349,0.00957802,7.2791,25.5557,39.7934
-0.0766145,0.402226,9.49062,0.00319267,0.0148991,0.00744957,7.2791,25.5557,39.7934
-0.047884,0.349553,9.46188,0.00532112,0.0138349,0.0106422,7.2791,25.5557,39.7934
-0.11971,0.488417,9.61033,0.0042569,0.0138349,0.00638535,7.2791,25.5557,39.7934
-0.148441,0.392649,9.55765,0.00638535,0.0170276,0.0106422,7.2791,25.5557,39.7934
-0.11971,0.445322,9.61033,0.00744957,0.0159634,0.0106422,7.2791,25.5557,39.7934
-0.0670376,0.411803,9.52413,0.00851379,0.0159634,0.00532112,7.2791,25.5557,39.7934
-0.0047884,0.411803,9.54329,0.00532112,0.0127707,0.00957802,7.2791,25.5557,39.7934
-0.0909797,0.387861,9.4954,0.0042569,0.0117065,0.0148991,7.2791,25.5557,39.7934
-0.153229,0.349553,9.56244,0.00638535,0.0117065,0.0106422,7.2791,25.5557,39.7934
-0.100556,0.387861,9.52892,0.00638535,0.0180918,0.0106422,7.2791,25.5557,39.7934
-0.110133,0.426168,9.50498,0.00851379,0.0159634,0.00638535,7.2791,25.5557,39.7934
-0.148441,0.339977,9.49062,0.00638535,0.0170276,0.0106422,7.2791,25.5557,39.7934
-0.0574608,0.387861,9.5816,0.00744957,0.0117065,0.00957802,7.2791,25.5557,39.7934
-0.0814029,0.411803,9.5816,0.0042569,0.00851379,0.00957802,7.2791,25.5557,39.7934
-0.134075,0.387861,9.42358,0.00851379,0.00957802,0.0106422,7.2791,25.5557,39.7934
-0.0526724,0.373495,9.67257,0.0106422,0.0127707,0.00957802,7.2791,25.5557,39.7934
0.0191536,0.416591,9.57202,0.00638535,0.0180918,0.00744957,7.2791,25.5557,39.7934
-0.11971,0.320823,9.56244,0.00319267,0.0117065,0.00957802,7.2791,25.5557,39.7934
-0.071826,0.373495,9.60075,0.00638535,0.0117065,0.0117065,7.2791,25.5557,39.7934
-0.158017,0.339977,9.54329,0.00638535,0.0159634,0.00851379,7.2791,25.5557,39.7934
-0.0861913,0.416591,9.5816,0.00851379,0.0148991,0.0106422,7.2791,25.5557,39.7934
-0.0909797,0.383072,9.39964,0.00319267,0.0127707,0.00957802,7.2791,25.5557,39.7934
-0.0383072,0.373495,9.56244,0.0042569,0.0148991,0.00638535,7.2791,25.5557,39.7934
-0.114922,0.383072,9.54329,0.00957802,0.0159634,0.0106422,7.2791,25.5557,39.7934
-0.129287,0.368707,9.46667,0.0042569,0.0127707,0.00744957,7.2791,25.5557,39.7934
-0.0766145,0.373495,9.47625,0.00532112,0.00744957,0.00851379,7.2791,25.5557,39.7934
-0.0526724,0.383072,9.52413,0.00638535,0.0106422,0.0106422,7.2791,25.5557,39.7934
-0.0526724,0.277727,9.45231,0.0106422,0.0127707,0.00638535,7.2791,25.5557,39.7934
-0.0814029,0.445322,9.52892,0.0042569,0.0138349,0.00532112,7.2791,25.5557,39.7934
-0.0622492,0.411803,9.44752,0.0042569,0.0159634,0.00851379,7.2791,25.5557,39.7934
-0.148441,0.392649,9.4954,0.00532112,0.0148991,0.0127707,7.2791,25.5557,39.7934
-0.148441,0.407014,9.54329,0.0106422,0.0170276,0.00744957,7.2791,25.5557,39.7934
-0.11971,0.383072,9.46667,0.00319267,0.00957802,0.0117065,7.2791,25.5557,39.7934
-0.110133,0.397437,9.43794,0.0042569,0.0117065,0.00957802,7.2791,25.5557,39.7934
-0.0622492,0.35913,9.55765,0.00744957,0.0127707,0.00744957,7.2791,25.5557,39.7934
-0.0574608,0.430956,9.47625,0.0106422,0.0138349,0.00957802,7.2791,25.5557,39.7934
-0.0766145,0.469264,9.414,0.00532112,0.0148991,0.00957802,7.2791,25.5557,39.7934
-0.0766145,0.363919,9.59117,0.00638535,0.0148991,0.0138349,7.2791,25.5557,39.7934
-0.172383,0.411803,9.55287,0.0106422,0.0117065,0.00638535,7.2791,25.5557,39.7934
-0.023942,0.531513,9.51456,0.00851379,0.0127707,0.00638535,7.2791,25.5557,39.7934
-0.105345,0.397437,9.44273,0.00744957,0.0138349,0.0127707,7.2791,25.5557,39.7934
-0.047884,0.383072,9.36133,0.00851379,0.0117065,0.0127707,7.2791,25.5557,39.7934
-0.148441,0.407014,9.50498,0.0106422,0.0159634,0.00744957,7.2791,25.5557,39.7934
-0.143652,0.354342,9.52413,0.00532112,0.0159634,0.00957802,7.2791,25.5557,39.7934
-0.0861913,0.354342,9.414,0.00319267,0.0117065,0.0117065,7.2791,25.5557,39.7934
-0.0574608,0.296881,9.40921,0.00851379,0.0127707,0.00638535,7.2791,25.5557,39.7934
-0.047884,0.3304,9.4954,0.00532112,0.0117065,0.00851379,7.2791,25.5557,39.7934
-0.134075,0.407014,9.62948,0.00851379,0.0106422,0.0138349,7.2791,25.5557,39.7934
-0.138864,0.45011,9.62948,0.00851379,0.0138349,0.00744957,7.2791,25.5557,39.7934
-0.0861913,0.469264,9.51456,0.00957802,0.00957802,0.00744957,7.2791,25.5557,39.7934
0.0191536,0.354342,9.60075,0.00957802,0.0138349,0.0127707,7.2791,25.5557,39.7934
-0.0861913,0.411803,9.49062,0.00638535,0.00957802,0.00532112,7.2791,25.5557,39.7934
-0.105345,0.445322,9.59117,0.0042569,0.0127707,0.00744957,7.2791,25.5557,39.7934
-0.114922,0.483629,9.59596,0.0042569,0.019156,0.00851379,7.2791,25.5557,39.7934
-0.100556,0.469264,9.54808,0.00532112,0.019156,0.00957802,7.2791,25.5557,39.7934
-0.138864,0.35913,9.48583,0.00638535,0.0159634,0.0106422,7.2791,25.5557,39.7934
0.0047884,0.469264,9.50019,0.00638535,0.0180918,0.0106422,7.2791,25.5557,39.7934
-0.071826,0.316035,9.50977,0.0042569,0.0117065,0.00957802,7.2791,25.5557,39.7934
-0.071826,0.426168,9.46188,0.00638535,0.0127707,0.0138349,7.2791,25.5557,39.7934
-0.110133,0.469264,9.54329,0.00638535,0.0138349,0.0117065,7.2791,25.5557,39.7934
-0.181959,0.42138,9.43315,0.00957802,0.0138349,0.00638535,7.2791,25.5557,39.7934
-0.0814029,0.407014,9.55765,0.00851379,0.0159634,0.00957802,7.2791,25.5557,39.7934
-0.0861913,0.3304,9.5385,0.00851379,0.0170276,0.0106422,7.2791,25.5557,39.7934
0,0.373495,9.40921,0.00638535,0.0117065,0.00957802,7.2791,25.5557,39.7934
-0.071826,0.354342,9.4571,0.00638535,0.0138349,0.00744957,7.2791,25.5557,39.7934
-0.124498,0.411803,9.4954,0.00638535,0.0148991,0.0106422,7.2791,25.5557,39.7934
-0.00957681,0.430956,9.50977,0.00638535,0.0148991,0.0117065,7.2791,25.5557,39.7934
-0.0909797,0.335188,9.40442,0.0106422,0.0148991,0.00957802,7.2791,25.5557,39.7934
-0.071826,0.392649,9.50019,0.00638535,0.0148991,0.0117065,7.2791,25.5557,39.7934
-0.0670376,0.35913,9.47625,0.00638535,0.019156,0.00957802,7.2791,25.5557,39.7934
-0.0574608,0.402226,9.48583,0.00532112,0.0138349,0.0106422,7.2791,25.5557,39.7934
-0.0766145,0.416591,9.52413,0.00638535,0.00957802,0.0127707,7.2791,25.5557,39.7934
-0.047884,0.435745,9.49062,0.0117065,0.0117065,0.00957802,7.2791,25.5557,39.7934
-0.0622492,0.454898,9.53371,0.0106422,0.0117065,0.0042569,7.2791,25.5557,39.7934
-0.0670376,0.474052,9.4571,0.00851379,0.0148991,0.00638535,7.2791,25.5557,39.7934
-0.105345,0.464475,9.62469,0.00744957,0.0159634,0.0106422,7.2791,25.5557,39.7934
-0.201113,0.493206,9.61033,0.00532112,0.0138349,0.00744957,7.2791,25.5557,39.7934
-0.138864,0.47884,9.54329,0.00532112,0.0138349,0.0127707,7.2791,25.5557,39.7934
-0.138864,0.402226,9.52892,0.00957802,0.0159634,0.00744957,7.2791,25.5557,39.7934
-0.11971,0.368707,9.54329,0.00744957,0.0138349,0.00744957,7.2791,25.5557,39.7934
-0.100556,0.426168,9.57681,0.00319267,0.0117065,0.00532112,7.2791,25.5557,39.7934
-0.167594,0.397437,9.52892,0.00638535,0.0138349,0.0106422,7.2791,25.5557,39.7934
-0.105345,0.435745,9.61511,0.00638535,0.0180918,0.00532112,7.2791,25.5557,39.7934
-0.0814029,0.483629,9.64384,0.00744957,0.0148991,0.00532112,7.2791,25.5557,39.7934
-0.047884,0.373495,9.52892,0.0042569,0.0106422,0.0106422,7.2791,25.5557,39.7934
-0.143652,0.392649,9.50498,0.00319267,0.0117065,0.0127707,7.2791,25.5557,39.7934
-0.11971,0.320823,9.53371,0.00319267,0.0127707,0.00957802,7.2791,25.5557,39.7934
-0.0143652,0.464475,9.50498,0.0042569,0.0138349,0.00957802,7.2791,25.5557,39.7934
-0.0047884,0.411803,9.55287,0.0042569,0.0117065,0.0117065,7.2791,25.5557,39.7934
-0.0861913,0.35913,9.52892,0.0106422,0.0148991,0.0106422,7.2791,25.5557,39.7934
-0.0191536,0.474052,9.4954,0.00851379,0.0159634,0.00319267,7.2791,25.5557,39.7934
-0.071826,0.435745,9.43315,0.00957802,0.0148991,0.00957802,7.2791,25.5557,39.7934
-0.0670376,0.464475,9.67257,0.00851379,0.0148991,0.0117065,7.2791,25.5557,39.7934
-0.071826,0.3304,9.63427,0.00957802,0.0180918,0.0042569,7.2791,25.5557,39.7934
-0.167594,0.407014,9.55765,0.00319267,0.0117065,0.00638535,7.2791,25.5557,39.7934
-0.129287,0.3304,9.50498,0.00638535,0.0106422,0.0117065,7.2791,25.5557,39.7934
-0.0766145,0.411803,9.50977,0.00532112,0.00851379,0.0127707,7.2791,25.5557,39.7934
-0.0861913,0.397437,9.49062,0.00851379,0.0117065,0.00851379,7.2791,25.5557,39.7934
-0.110133,0.344765,9.57681,0.00744957,0.0138349,0.00638535,7.2791,25.5557,39.7934
-0.0383072,0.469264,9.57681,0.00744957,0.0117065,0.00744957,7.2791,25.5557,39.7934
-0.129287,0.373495,9.55287,0.00851379,0.0138349,0.00957802,7.2791,25.5557,39.7934
-0.11971,0.387861,9.50498,0.00532112,0.0148991,0.00744957,7.2791,25.5557,39.7934
-0.0909797,0.368707,9.63427,0.00319267,0.0148991,0.00744957,7.2791,25.5557,39.7934
-0.177171,0.397437,9.57202,0.00532112,0.0148991,0.00957802,7.2791,25.5557,39.7934
-0.0143652,0.383072,9.58638,0.00638535,0.0138349,0.0117065,7.2791,25.5557,39.7934
-0.0814029,0.445322,9.63906,0.00851379,0.0159634,0.0117065,7.2791,25.5557,39.7934
-0.158017,0.435745,9.55765,0.00851379,0.0148991,0.00532112,7.2791,25.5557,39.7934
-0.0766145,0.411803,9.63906,0.0042569,0.0138349,0.00957802,7.2791,25.5557,39.7934
-0.0191536,0.392649,9.51456,0.00851379,0.00957802,0.00532112,7.2791,25.5557,39.7934
-0.110133,0.373495,9.39485,0.0106422,0.00744957,0.0042569,7.2791,25.5557,39.7934
-0.105345,0.363919,9.56244,0.00532112,0.0180918,0.0138349,7.2791,25.5557,39.7934
-0.114922,0.244209,9.49062,0.00319267,0.0170276,0.0127707,7.2791,25.5557,39.7934
-0.153229,0.354342,9.52892,0.00638535,0.0138349,0.00638535,7.2791,25.5557,39.7934
-0.0526724,0.430956,9.61033,0.00532112,0.0127707,0.00532112,7.2791,25.5557,39.7934
-0.0766145,0.373495,9.43315,0.00638535,0.0106422,0.00957802,7.2791,25.5557,39.7934
-0.0143652,0.47884,9.53371,0.0042569,0.00851379,0.00851379,7.2791,25.5557,39.7934
-0.100556,0.440533,9.34696,0.00532112,0.0117065,0.00957802,7.2791,25.5557,39.7934
-0.0909797,0.464475,9.43794,0.00212845,0.0170276,0.0106422,7.2791,25.5557,39.7934
-0.100556,0.363919,9.663,0.00106422,0.0159634,0.00851379,7.2791,25.5557,39.7934
-0.100556,0.349553,9.56244,0.00957802,0.0127707,0.0106422,7.2791,25.5557,39.7934
-0.105345,0.435745,9.51456,0.00532112,0.0148991,0.00638535,7.2791,25.5557,39.7934
-0.0766145,0.383072,9.57202,0.0042569,0.019156,0.00851379,7.2791,25.5557,39.7934
-0.148441,0.411803,9.42837,0.00744957,0.0148991,0.0117065,7.2791,25.5557,39.7934
-0.0909797,0.440533,9.51456,0.00957802,0.0148991,0.0138349,7.2791,25.5557,39.7934
-0.0143652,0.35913,9.39964,0.00957802,0.0127707,0.00957802,7.2791,25.5557,39.7934
-0.023942,0.306458,9.60075,0.00851379,0.0106422,0.00532112,7.2791,25.5557,39.7934
-0.023942,0.316035,9.55287,0.00532112,0.0117065,0.0106422,7.2791,25.5557,39.7934
-0.100556,0.373495,9.62948,0.00744957,0.0117065,0.0117065,6.56895,26.2705,40.4824
-0.186748,0.344765,9.5816,0.00638535,0.0127707,0.0138349,6.56895,26.2705,40.4824
-0.114922,0.407014,9.63906,0.00744957,0.0127707,0.00851379,6.56895,26.2705,40.4824
-0.0814029,0.402226,9.46188,0.00744957,0.0127707,0.0106422,6.56895,26.2705,40.4824
-0.138864,0.3304,9.50977,0.00851379,0.0106422,0.0138349,6.56895,26.2705,40.4824
-0.0526724,0.35913,9.50498,0.0042569,0.00851379,0.0117065,6.56895,26.2705,40.4824
-0.114922,0.435745,9.60075,0.0042569,0.0106422,0.0138349,6.56895,26.2705,40.4824
-0.100556,0.440533,9.60075,0.0106422,0.00957802,0.00851379,6.56895,26.2705,40.4824
-0.105345,0.354342,9.65342,0.0042569,0.0138349,0.00638535,6.56895,26.2705,40.4824
-0.105345,0.416591,9.5385,0.00532112,0.0138349,0.00744957,6.56895,26.2705,40.4824
-0.114922,0.349553,9.55765,0.00851379,0.0159634,0.0117065,6.56895,26.2705,40.4824
-0.105345,0.35913,9.59117,0.00851379,0.0159634,0.00851379,6.56895,26.2705,40.4824
-0.0622492,0.42138,9.50019,0.00638535,0.0127707,0.00212845,6.56895,26.2705,40.4824
-0.134075,0.426168,9.53371,0.0106422,0.0117065,0.00851379,6.56895,26.2705,40.4824
-0.153229,0.368707,9.55287,0.00851379,0.0159634,0.00851379,6.56895,26.2705,40.4824
-0.0574608,0.426168,9.5385,0.0106422,0.0223487,0.00744957,6.56895,26.2705,40.4824
-0.0526724,0.35913,9.56244,0.0117065,0.0159634,0.0159634,6.56895,26.2705,40.4824
-0.100556,0.387861,9.53371,0.00638535,0.0117065,0.0117065,6.56895,26.2705,40.4824
-0.177171,0.469264,9.61033,0.00532112,0.0159634,0.0106422,6.56895,26.2705,40.4824
-0.00957681,0.373495,9.47625,0.00957802,0.0159634,0.00212845,6.56895,26.2705,40.4824
-0.124498,0.440533,9.55765,0.00532112,0.0138349,0.00957802,6.56895,26.2705,40.4824
-0.110133,0.454898,9.5385,0.00319267,0.0127707,0.0138349,6.56895,26.2705,40.4824
0,0.354342,9.57681,0.00957802,0.0148991,0.00957802,6.56895,26.2705,40.4824
-0.134075,0.445322,9.50019,0.0127707,0.0106422,0.0117065,6.56895,26.2705,40.4824
-0.158017,0.335188,9.55765,0.0127707,0.0148991,0.0138349,6.56895,26.2705,40.4824
-0.0670376,0.397437,9.55765,0.00319267,0.0117065,0.00532112,6.56895,26.2705,40.4824
-0.100556,0.402226,9.54808,0.00212845,0.0148991,0.00638535,6.56895,26.2705,40.4824
-0.110133,0.435745,9.61511,0.00744957,0.0127707,0.0106422,6.56895,26.2705,40.4824
-0.047884,0.416591,9.52413,0.00851379,0.0180918,0.0127707,6.56895,26.2705,40.4824
-0.138864,0.416591,9.57202,0.00532112,0.0138349,0.0042569,6.56895,26.2705,40.4824
-0.0670376,0.320823,9.46667,0.0127707,0.00957802,0.00744957,6.56895,26.2705,40.4824
-0.124498,0.45011,9.53371,0.00957802,0.0148991,0.00957802,6.56895,26.2705,40.4824
-0.0814029,0.354342,9.51456,0.0042569,0.0170276,0.00851379,6.56895,26.2705,40.4824
-0.158017,0.335188,9.48104,0.00532112,0.0106422,0.00532112,6.56895,26.2705,40.4824
-0.071826,0.392649,9.46188,0.00744957,0.0106422,0.00851379,6.56895,26.2705,40.4824
-0.0574608,0.435745,9.55287,0.00744957,0.0138349,0.0106422,6.56895,26.2705,40.4824
-0.105345,0.397437,9.52413,0.00638535,0.0117065,0.00638535,6.56895,26.2705,40.4824
-0.105345,0.392649,9.57681,0.00638535,0.0106422,0.00638535,6.56895,26.2705,40.4824
-0.0670376,0.397437,9.43794,0.00106422,0.0138349,0.00638535,6.56895,26.2705,40.4824
-0.0526724,0.363919,9.60554,0.00532112,0.00957802,0.0042569,6.56895,26.2705,40.4824
-0.0766145,0.354342,9.60554,0.00744957,0.00957802,0.00744957,6.56895,26.2705,40.4824
-0.124498,0.464475,9.63906,0.00957802,0.0159634,0.0106422,6.56895,26.2705,40.4824
-0.205901,0.335188,9.50977,0.0042569,0.0117065,0.0127707,6.56895,26.2705,40.4824
-0.0909797,0.320823,9.45231,0.00744957,0.0127707,0.00957802,6.56895,26.2705,40.4824
-0.0574608,0.440533,9.48104,0.00744957,0.0127707,0.0106422,6.56895,26.2705,40.4824
-0.100556,0.320823,9.61033,0.00638535,0.0127707,0.00744957,6.56895,26.2705,40.4824
-0.0766145,0.469264,9.52892,0.00851379,0.0117065,0.00744957,6.56895,26.2705,40.4824
-0.0814029,0.35913,9.61511,0.00638535,0.0170276,0.0117065,6.56895,26.2705,40.4824
-0.110133,0.392649,9.44752,0.00744957,0.0148991,0.00957802,6.56895,26.2705,40.4824
-0.0861913,0.339977,9.42358,0.00532112,0.0127707,0.0148991,6.56895,26.2705,40.4824
-0.110133,0.316035,9.61033,0.0042569,0.0148991,0.0106422,6.56895,26.2705,40.4824
-0.0574608,0.383072,9.60075,0.00851379,0.0106422,0.00957802,6.56895,26.2705,40.4824
-0.205901,0.387861,9.50019,0.00532112,0.00957802,0.00957802,6.56895,26.2705,40.4824
-0.177171,0.469264,9.63427,0.00638535,0.0127707,0.00851379,6.56895,26.2705,40.4824
-0.177171,0.3304,9.55765,0.00957802,0.00957802,0.00957802,6.56895,26.2705,40.4824
-0.071826,0.363919,9.54808,0.00532112,0.0127707,0.00744957,6.56895,26.2705,40.4824
-0.0861913,0.320823,9.4571,0.00744957,0.0202203,0.0106422,6.56895,26.2705,40.4824
-0.11971,0.483629,9.48583,0.00319267,0.0138349,0.0106422,6.56895,26.2705,40.4824
-0.114922,0.316035,9.4954,0.00532112,0.0106422,0.0148991,6.56895,26.2705,40.4824
-0.100556,0.306458,9.62469,0.00851379,0.0127707,0.00957802,6.56895,26.2705,40.4824
-0.134075,0.430956,9.52892,0.00851379,0.0159634,0.00532112,6.56895,26.2705,40.4824
-0.0670376,0.435745,9.35175,0.00532112,0.0138349,0.00957802,6.56895,26.2705,40.4824
-0.0766145,0.368707,9.46188,0.00851379,0.0117065,0.0127707,6.56895,26.2705,40.4824
-0.138864,0.397437,9.55287,0.0106422,0.0117065,0.00851379,6.56895,26.2705,40.4824
-0.0814029,0.402226,9.414,0.00638535,0.0148991,0.00851379,6.56895,26.2705,40.4824
-0.105345,0.402226,9.56244,0.00851379,0.0127707,0.00851379,6.56895,26.2705,40.4824
-0.0574608,0.368707,9.4954,0.0106422,0.0127707,0.0106422,6.56895,26.2705,40.4824
-0.0814029,0.35913,9.5816,0.00851379,0.0106422,0.0117065,6.56895,26.2705,40.4824
-0.0622492,0.416591,9.53371,0.00744957,0.0159634,0.00532112,6.56895,26.2705,40.4824
-0.114922,0.373495,9.54808,0.00212845,0.0106422,0.00638535,6.56895,26.2705,40.4824
-0.181959,0.368707,9.45231,0.00744957,0.0148991,0.00957802,6.56895,26.2705,40.4824
-0.0814029,0.383072,9.57202,0.00957802,0.0117065,0.00744957,6.56895,26.2705,40.4824
-0.0526724,0.320823,9.45231,0.00532112,0.0148991,0.00957802,6.56895,26.2705,40.4824
-0.0287304,0.368707,9.5816,0.00638535,0.0170276,0.0127707,6.56895,26.2705,40.4824
-0.138864,0.368707,9.48104,0.00957802,0.0138349,0.00744957,6.56895,26.2705,40.4824
-0.110133,0.373495,9.54329,0.00851379,0.0138349,0.00744957,6.56895,26.2705,40.4824
-0.124498,0.426168,9.52892,0.00744957,0.0127707,0.00957802,6.56895,26.2705,40.4824
-0.105345,0.397437,9.46667,0.00532112,0.0127707,0.0106422,6.56895,26.2705,40.4824
-0.0909797,0.397437,9.48104,0.00744957,0.0138349,0.00851379,6.56895,26.2705,40.4824
-0.100556,0.397437,9.61033,0.0042569,0.0180918,0.0106422,6.56895,26.2705,40.4824
-0.167594,0.445322,9.5816,0.00532112,0.0138349,0.00744957,6.56895,26.2705,40.4824
-0.114922,0.416591,9.4954,0.0117065,0.0159634,0.0106422,6.56895,26.2705,40.4824
-0.0814029,0.354342,9.50019,0.00957802,0.0170276,0.00957802,6.56895,26.2705,40.4824
-0.0861913,0.426168,9.43794,0.00744957,0.0138349,0.0117065,6.56895,26.2705,40.4824
-0.071826,0.335188,9.57681,0.00532112,0.0117065,0.00851379,6.56895,26.2705,40.4824
-0.0574608,0.426168,9.47625,0.00744957,0.0127707,0.0127707,6.56895,26.2705,40.4824
-0.138864,0.42138,9.58638,0.00319267,0.0159634,0.0106422,6.56895,26.2705,40.4824
-0.0766145,0.42138,9.53371,0.00744957,0.0127707,0.00744957,6.39141,26.4492,39.6211
-0.0909797,0.373495,9.50977,0.00319267,0.0148991,0.00744957,6.39141,26.4492,39.6211
-0.110133,0.368707,9.38527,0.0042569,0.0138349,0.00638535,6.39141,26.4492,39.6211
-0.110133,0.35913,9.48583,0.00744957,0.0127707,0.0106422,6.39141,26.4492,39.6211
-0.0766145,0.407014,9.51456,0.00638535,0.0117065,0.0106422,6.39141,26.4492,39.6211
-0.138864,0.306458,9.64863,0.00638535,0.0148991,0.00638535,6.39141,26.4492,39.6211
-0.0526724,0.368707,9.54329,0.0042569,0.0180918,0.00638535,6.39141,26.4492,39.6211
-0.0287304,0.411803,9.53371,0.00744957,0.0148991,0.0106422,6.39141,26.4492,39.6211
-0.110133,0.464475,9.48583,0.0042569,0.0127707,0.0117065,6.39141,26.4492,39.6211
-0.0143652,0.464475,9.46667,0.00212845,0.0127707,0.00319267,6.39141,26.4492,39.6211
-0.0814029,0.373495,9.35654,0.00638535,0.0170276,0.00957802,6.39141,26.4492,39.6211
-0.148441,0.402226,9.43315,0.00532112,0.0170276,0.00744957,6.39141,26.4492,39.6211
-0.124498,0.373495,9.48583,0.00532112,0.0148991,0.00638535,6.39141,26.4492,39.6211
-0.143652,0.430956,9.54808,0.00851379,0.0159634,0.0106422,6.39141,26.4492,39.6211
-0.00957681,0.335188,9.50977,0.00638535,0.0138349,0.0106422,6.39141,26.4492,39.6211
-0.0622492,0.339977,9.5816,0.00638535,0.0127707,0.00851379,6.39141,26.4492,39.6211
-0.134075,0.392649,9.39964,0.0106422,0.00957802,0.0106422,6.39141,26.4492,39.6211
-0.143652,0.383072,9.59117,0.0117065,0.0138349,0.0106422,6.39141,26.4492,39.6211
-0.0574608,0.387861,9.39485,0.0042569,0.0138349,0.0106422,6.39141,26.4492,39.6211
-0.138864,0.430956,9.58638,0.00851379,0.0106422,0.00957802,6.39141,26.4492,39.6211
-0.11971,0.407014,9.58638,0.0117065,0.0117065,0.00744957,6.39141,26.4492,39.6211
-0.0430956,0.464475,9.42358,0.00638535,0.0117065,0.0106422,6.39141,26.4492,39.6211
-0.0814029,0.344765,9.56244,0.00319267,0.0159634,0.00744957,6.39141,26.4492,39.6211
-0.023942,0.469264,9.43794,0.00851379,0.0159634,0.00957802,6.39141,26.4492,39.6211
-0.172383,0.383072,9.55287,0.00851379,0.00957802,0.0117065,6.39141,26.4492,39.6211
-0.110133,0.407014,9.59117,0.00532112,0.0117065,0.00957802,6.39141,26.4492,39.6211
-0.0622492,0.407014,9.34696,0.00532112,0.0148991,0.0106422,6.39141,26.4492,39.6211
-0.071826,0.35913,9.4954,0.00638535,0.0148991,0.00638535,6.39141,26.4492,39.6211
-0.0526724,0.311246,9.5816,0.0117065,0.0106422,0.0117065,6.39141,26.4492,39.6211
-0.201113,0.445322,9.37569,0.00851379,0.0127707,0.00744957,6.39141,26.4492,39.6211
-0.215478,0.435745,9.48583,0.0127707,0.0159634,0.00319267,6.39141,26.4492,39.6211
-0.110133,0.387861,9.46667,0.0127707,0.0138349,0.00744957,6.39141,26.4492,39.6211
-0.110133,0.306458,9.48583,0,0.0138349,0.00638535,6.39141,26.4492,39.6211
-0.071826,0.368707,9.46667,0.00532112,0.0180918,0.00957802,6.39141,26.4492,39.6211
-0.129287,0.392649,9.57681,0.0127707,0.0138349,0.0117065,6.39141,26.4492,39.6211
-0.158017,0.407014,9.46667,0.0106422,0.0127707,0.00957802,6.39141,26.4492,39.6211
-0.0526724,0.301669,9.42837,0.00744957,0.0138349,0.0117065,6.39141,26.4492,39.6211
-0.148441,0.344765,9.52892,0.00957802,0.0148991,0.00638535,6.39141,26.4492,39.6211
-0.00957681,0.411803,9.35654,0.00851379,0.0106422,0.00957802,6.39141,26.4492,39.6211
-0.0909797,0.402226,9.60075,0.0042569,0.0127707,0.0117065,6.39141,26.4492,39.6211
-0.00957681,0.42138,9.43315,0.00744957,0.0159634,0.0106422,6.39141,26.4492,39.6211
-0.105345,0.383072,9.54329,0.00851379,0.0148991,0.00744957,6.39141,26.4492,39.6211
-0.138864,0.42138,9.59596,0.00851379,0.00851379,0.00319267,6.39141,26.4492,39.6211
-0.0143652,0.435745,9.48583,0.00851379,0.0117065,0.00638535,6.39141,26.4492,39.6211
-0.00957681,0.392649,9.46667,0.00638535,0.0138349,0.0127707,6.39141,26.4492,39.6211
-0.0766145,0.42138,9.55287,0.0042569,0.0117065,0.00638535,6.39141,26.4492,39.6211
-0.100556,0.373495,9.4571,0.00851379,0.0180918,0.00532112,6.39141,26.4492,39.6211
-0.0861913,0.373495,9.47625,0.00638535,0.0127707,0.00638535,6.39141,26.4492,39.6211
-0.100556,0.311246,9.45231,0.00532112,0.0106422,0.00744957,6.39141,26.4492,39.6211
-0.0622492,0.325611,9.54808,0.00532112,0.0148991,0.0117065,6.39141,26.4492,39.6211
-0.110133,0.296881,9.64863,0.00638535,0.0170276,0.0117065,6.39141,26.4492,39.6211
-0.134075,0.454898,9.60554,0.00744957,0.0127707,0.00851379,6.39141,26.4492,39.6211
-0.181959,0.368707,9.4954,0.00532112,0.0106422,0.00319267,6.39141,26.4492,39.6211
-0.0861913,0.493206,9.45231,0.00744957,0.0127707,0.00532112,6.39141,26.4492,39.6211
-0.0574608,0.430956,9.60554,0.00957802,0.0127707,0.0106422,6.39141,26.4492,39.6211
-0.071826,0.383072,9.55765,0.00851379,0.0148991,0.0106422,6.39141,26.4492,39.6211
-0.134075,0.392649,9.57202,0.00851379,0.0180918,0.0117065,6.39141,26.4492,39.6211
-0.124498,0.397437,9.4954,0.0117065,0.0138349,0.0117065,6.39141,26.4492,39.6211
-0.0191536,0.354342,9.48104,0.00744957,0.0170276,0.00319267,6.39141,26.4492,39.6211
-0.0766145,0.363919,9.64384,0.00319267,0.0138349,0.00319267,6.39141,26.4492,39.6211
-0.0861913,0.411803,9.42837,0.00957802,0.00957802,0.00957802,6.39141,26.4492,39.6211
-0.0814029,0.339977,9.52892,0.00744957,0.0127707,0.00957802,6.39141,26.4492,39.6211
-0.105345,0.411803,9.50498,0.00532112,0.0180918,0.00957802,6.39141,26.4492,39.6211
-0.0670376,0.392649,9.49062,0.00638535,0.019156,0.0127707,6.39141,26.4492,39.6211
-0.143652,0.45011,9.59117,0.00957802,0.0159634,0.00957802,6.39141,26.4492,39.6211
-0.0191536,0.311246,9.61511,0.00851379,0.0138349,0.0106422,6.39141,26.4492,39.6211
-0.105345,0.335188,9.5816,0.00744957,0.0106422,0.0117065,6.39141,26.4492,39.6211
-0.129287,0.383072,9.51456,0.00744957,0.0148991,0.0106422,6.39141,26.4492,39.6211
-0.129287,0.354342,9.48104,0.00851379,0.0159634,0.0106422,6.39141,26.4492,39.6211
-0.186748,0.407014,9.62948,0.00744957,0.0180918,0.0106422,6.39141,26.4492,39.6211
-0.134075,0.397437,9.48583,0.0106422,0.0180918,0.00744957,6.39141,26.4492,39.6211
-0.110133,0.426168,9.46667,0.0106422,0.0138349,0.00957802,6.39141,26.4492,39.6211
-0.0814029,0.435745,9.48104,0.00638535,0.0106422,0.0117065,6.39141,26.4492,39.6211
-0.191536,0.397437,9.54808,0.00532112,0.0180918,0.00744957,6.39141,26.4492,39.6211
-0.134075,0.440533,9.73004,0.00212845,0.0159634,0.00851379,6.39141,26.4492,39.6211
0.0526724,0.497994,9.47625,0.00212845,0.0148991,0.0117065,6.39141,26.4492,39.6211
-0.177171,0.426168,9.61511,0.00744957,0.0106422,0.0106422,6.39141,26.4492,39.6211
-0.0383072,0.45011,9.48104,0.0117065,0.0148991,0.0127707,6.39141,26.4492,39.6211
-0.11971,0.35913,9.60554,0.0042569,0.0127707,0.00638535,6.39141,26.4492,39.6211
-0.00957681,0.354342,9.52892,0.00532112,0.0148991,0.00957802,6.39141,26.4492,39.6211
-0.100556,0.42138,9.58638,0.00957802,0.0159634,0.0117065,6.39141,26.4492,39.6211
-0.0430956,0.45011,9.47625,0.00851379,0.0138349,0.0106422,6.39141,26.4492,39.6211
-0.110133,0.435745,9.63906,0.00319267,0.0180918,0.00638535,6.39141,26.4492,39.6211
-0.0526724,0.435745,9.48583,0.0042569,0.00851379,0.00957802,6.39141,26.4492,39.6211
-0.0766145,0.407014,9.5816,0.00851379,0.00957802,0.00532112,6.39141,26.4492,39.6211
-0.0143652,0.407014,9.5385,0.00851379,0.0159634,0.00744957,6.39141,26.4492,39.6211
-0.114922,0.42138,9.61511,0.00638535,0.0138349,0.0117065,6.39141,26.4492,39.6211
-0.114922,0.397437,9.67257,0.00957802,0.0148991,0.00744957,6.39141,26.4492,39.6211
-0.143652,0.411803,9.54808,0.0117065,0.0148991,0.00638535,6.39141,26.4492,39.6211
-0.105345,0.440533,9.50019,0.00851379,0.0159634,0.00851379,6.39141,26.4492,39.6211
-0.0766145,0.373495,9.52892,0.00744957,0.0138349,0.0117065,6.39141,26.4492,39.6211
-0.105345,0.45011,9.58638,0.00957802,0.019156,0.00957802,6.39141,26.4492,39.6211
-0.134075,0.392649,9.54808,0.0117065,0.0138349,0.00638535,6.39141,26.4492,39.6211
-0.129287,0.363919,9.53371,0.00957802,0.0159634,0.00851379,6.39141,26.4492,39.6211
-0.0430956,0.416591,9.43315,0.00851379,0.0180918,0.00851379,6.39141,26.4492,39.6211
-0.105345,0.402226,9.50977,0.00106422,0.0138349,0.00851379,6.39141,26.4492,39.6211
-0.0814029,0.306458,9.55287,0.00744957,0.0138349,0.00957802,6.39141,26.4492,39.6211
-0.0526724,0.383072,9.62469,0.00638535,0.0170276,0.00744957,6.39141,26.4492,39.6211
-0.167594,0.402226,9.64384,0.00851379,0.0127707,0.0127707,6.39141,26.4492,39.6211
-0.0670376,0.383072,9.52892,0.0148991,0.00957802,0.0117065,6.39141,26.4492,39.6211
-0.0766145,0.387861,9.46188,0.00319267,0.0117065,0.00744957,6.39141,26.4492,39.6211
-0.114922,0.392649,9.53371,0.00532112,0.0138349,0.00744957,6.39141,26.4492,39.6211
-0.143652,0.42138,9.4571,0.0042569,0.0117065,0.00957802,6.39141,26.4492,39.6211
-0.172383,0.45011,9.57202,0.00957802,0.0138349,0.0127707,6.39141,26.4492,39.6211
-0.0670376,0.383072,9.58638,0.00957802,0.0170276,0.00851379,6.39141,26.4492,39.6211
-0.0574608,0.416591,9.51456,0.0042569,0.0138349,0.00744957,6.39141,26.4492,39.6211
0.00957681,0.320823,9.43794,0.00638535,0.0117065,0.00744957,6.39141,26.4492,39.6211
-0.047884,0.354342,9.52413,0.00638535,0.0138349,0.00957802,6.39141,26.4492,39.6211
-0.0814029,0.373495,9.57202,0.00532112,0.0127707,0.0127707,6.39141,26.4492,39.6211
-0.143652,0.397437,9.56244,0.00638535,0.0106422,0.00851379,6.39141,26.4492,39.6211
-0.0861913,0.387861,9.29908,0.00851379,0.0148991,0.0106422,6.39141,26.4492,39.6211
-0.0287304,0.402226,9.4571,0.00638535,0.0170276,0.0127707,6.39141,26.4492,39.6211
-0.023942,0.368707,9.53371,0.00638535,0.0170276,0.0117065,6.39141,26.4492,39.6211
-0.0766145,0.440533,9.58638,0.00638535,0.0127707,0.00957802,6.39141,26.4492,39.6211
-0.158017,0.363919,9.54329,0.00851379,0.0148991,0.0042569,6.39141,26.4492,39.6211
-0.0766145,0.392649,9.54329,0.00106422,0.0180918,0.00851379,6.39141,26.4492,39.6211
-0.114922,0.392649,9.55287,0.00638535,0.019156,0.00744957,6.39141,26.4492,39.6211
-0.143652,0.402226,9.50977,0.00744957,0.0170276,0.00851379,6.39141,26.4492,39.6211
-0.100556,0.440533,9.40442,0.00957802,0.0159634,0.00744957,6.39141,26.4492,39.6211
-0.181959,0.35913,9.65821,0.00638535,0.0180918,0.00638535,6.39141,26.4492,39.6211
-0.110133,0.368707,9.59117,0.00106422,0.0106422,0.00851379,6.39141,26.4492,39.6211
-0.0574608,0.435745,9.53371,0.00106422,0.00957802,0.0159634,6.39141,26.4492,39.6211
-0.134075,0.42138,9.64384,0.00319267,0.0159634,0.00638535,6.39141,26.4492,39.6211
-0.100556,0.325611,9.45231,0.00638535,0.0138349,0.0042569,6.39141,26.4492,39.6211
-0.0287304,0.373495,9.4954,0.00851379,0.0117065,0.00638535,6.39141,26.4492,39.6211
-0.191536,0.35913,9.40442,0.00851379,0.0202203,0.0042569,6.39141,26.4492,39.6211
-0.138864,0.339977,9.67257,0.00957802,0.0159634,0.0138349,6.39141,26.4492,39.6211
-0.0622492,0.387861,9.44752,0.0042569,0.0117065,0.0127707,6.39141,26.4492,39.6211
-0.153229,0.411803,9.50019,0.00532112,0.0117065,0.00851379,6.39141,26.4492,39.6211
-0.0861913,0.354342,9.57681,0.00638535,0.0148991,0.00851379,6.39141,26.4492,39.6211
-0.100556,0.397437,9.56244,0.00744957,0.0127707,0.00532112,6.39141,26.4492,39.6211
-0.134075,0.426168,9.50498,0.00319267,0.0170276,0.00851379,6.39141,26.4492,39.6211
-0.105345,0.426168,9.49062,0.00638535,0.0148991,0.0106422,6.39141,26.4492,39.6211
-0.167594,0.430956,9.46667,0.00319267,0.0117065,0.00744957,6.39141,26.4492,39.6211
-0.047884,0.363919,9.56244,0.00212845,0.0180918,0.00638535,6.39141,26.4492,39.6211
-0.0143652,0.3304,9.53371,0.0117065,0.0159634,0.00957802,6.39141,26.4492,39.6211
-0.00957681,0.35913,9.56244,0.0106422,0.0159634,0.0106422,6.39141,26.4492,39.6211
-0.105345,0.368707,9.75398,0.00532112,0.0148991,0.00744957,6.39141,26.4492,39.6211
-0.215478,0.383072,9.65821,0.0106422,0.0159634,0.00744957,6.39141,26.4492,39.6211
-0.0383072,0.383072,9.61033,0.00319267,0.0138349,0.00638535,6.39141,26.4492,39.6211
-0.047884,0.407014,9.52413,0.00212845,0.0159634,0.00744957,6.39141,26.4492,39.6211
-0.129287,0.416591,9.65342,0.0042569,0.0148991,0.00851379,6.39141,26.4492,39.6211
-0.143652,0.387861,9.59596,0.0042569,0.0170276,0.00638535,6.39141,26.4492,39.6211
-0.181959,0.416591,9.45231,0.00744957,0.0138349,0.0042569,6.39141,26.4492,39.6211
-0.0383072,0.440533,9.67736,0.00744957,0.00957802,0.0127707,6.39141,26.4492,39.6211
-0.11971,0.407014,9.56244,0.0117065,0.0148991,0.00957802,6.39141,26.4492,39.6211
-0.0383072,0.320823,9.48583,0.00957802,0.00957802,0.00851379,6.39141,26.4492,39.6211
-0.00957681,0.397437,9.46667,0.0042569,0.0106422,0.00851379,6.39141,26.4492,39.6211
-0.0814029,0.416591,9.55765,0.00744957,0.0170276,0.00638535,6.39141,26.4492,39.6211
-0.0574608,0.407014,9.57681,0.00744957,0.0148991,0.00638535,6.39141,26.4492,39.6211
-0.0287304,0.474052,9.55765,0.00957802,0.00957802,0.00532112,6.39141,26.4492,39.6211
-0.110133,0.387861,9.48583,0.00957802,0.0117065,0.00851379,6.39141,26.4492,39.6211
-0.167594,0.354342,9.62948,0.00638535,0.0138349,0.0148991,6.39141,26.4492,39.6211
-0.124498,0.373495,9.43315,0.0042569,0.0117065,0.00638535,6.39141,26.4492,39.6211
-0.0574608,0.387861,9.5385,0.00744957,0.0127707,0.00532112,6.39141,26.4492,39.6211
-0.124498,0.474052,9.64384,0.00744957,0.0170276,0.00744957,6.39141,26.4492,39.6211
-0.124498,0.445322,9.48104,0.00638535,0.0170276,0.00744957,6.39141,26.4492,39.6211
-0.114922,0.392649,9.62469,0.00957802,0.00851379,0.0138349,6.39141,26.4492,39.6211
-0.0191536,0.392649,9.42837,0.00744957,0.0138349,0.00851379,6.39141,26.4492,39.6211
-0.0814029,0.45011,9.54329,0.00957802,0.0106422,0.0117065,6.39141,26.4492,39.6211
-0.0861913,0.469264,9.44752,0.0106422,0.0148991,0.00957802,6.39141,26.4492,39.6211
-0.0670376,0.363919,9.4954,0.00851379,0.0170276,0.00957802,6.39141,26.4492,39.6211
0.0430956,0.416591,9.43794,0.00212845,0.0127707,0.00957802,6.39141,26.4492,39.6211
-0.0766145,0.454898,9.60554,0.00638535,0.0148991,0.00638535,6.39141,26.4492,39.6211
-0.0526724,0.296881,9.54808,0.00319267,0.0127707,0.0106422,6.39141,26.4492,39.6211
-0.124498,0.344765,9.4571,0.00532112,0.0117065,0.0106422,6.39141,26.4492,39.6211
-0.172383,0.383072,9.50977,0.0127707,0.0138349,0.0117065,6.39141,26.4492,39.6211
-0.138864,0.311246,9.414,0.0127707,0.00957802,0.00532112,6.39141,26.4492,39.6211
-0.047884,0.416591,9.40442,0.00319267,0.00638535,0.00638535,6.39141,26.4492,39.6211
-0.134075,0.3304,9.38527,0.00532112,0.0127707,0.0106422,6.39141,26.4492,39.6211
-0.138864,0.392649,9.50498,0.00744957,0.0148991,0.00851379,6.39141,26.4492,39.6211
-0.0766145,0.392649,9.44273,0.00319267,0.0138349,0.00957802,6.39141,26.4492,39.6211
-0.177171,0.440533,9.53371,0.00212845,0.0159634,0.00957802,6.39141,26.4492,39.6211
-0.134075,0.35913,9.55765,0.0042569,0.0170276,0.00957802,6.39141,26.4492,39.6211
-0.0861913,0.3304,9.59596,0.00851379,0.0117065,0.0106422,6.39141,26.4492,39.6211
-0.0526724,0.407014,9.63427,0.00744957,0.00744957,0.0106422,6.39141,26.4492,39.6211
-0.0670376,0.430956,9.57681,0.00319267,0.0117065,0.00638535,6.39141,26.4492,39.6211
-0.023942,0.407014,9.4954,0.00319267,0.0212845,0.00638535,6.39141,26.4492,39.6211
-0.100556,0.349553,9.48104,0.00638535,0.0202203,0.00851379,6.39141,26.4492,39.6211
-0.0526724,0.344765,9.414,0.00957802,0.0148991,0.0117065,6.39141,26.4492,39.6211
-0.0526724,0.339977,9.50977,0.00957802,0.0106422,0.00744957,6.39141,26.4492,39.6211
-0.114922,0.435745,9.5816,0.00957802,0.0138349,0.0117065,6.39141,26.4492,39.6211
-0.0766145,0.320823,9.48104,0.00638535,0.0148991,0.0127707,6.39141,26.4492,39.6211
-0.186748,0.373495,9.60554,0.00638535,0.0127707,0.00744957,6.39141,26.4492,39.6211
-0.153229,0.416591,9.38048,0.00851379,0.00744957,0.00957802,6.39141,26.4492,39.6211
-0.114922,0.402226,9.4954,0.0042569,0.0106422,0.0106422,6.39141,26.4492,39.6211
-0.0670376,0.42138,9.57202,0.00851379,0.0180918,0.0042569,6.39141,26.4492,39.6211
-0.0814029,0.373495,9.56244,0.0117065,0.0117065,0.00851379,6.39141,26.4492,39.6211
-0.0430956,0.42138,9.60075,0.0117065,0.0148991,0.0106422,6.39141,26.4492,39.6211
-0.0814029,0.344765,9.52892,0.0042569,0.0159634,0.0117065,6.39141,26.4492,39.6211
-0.0861913,0.363919,9.56244,0.00744957,0.00957802,0.00957802,6.39141,26.4492,39.6211
-0.0430956,0.411803,9.48104,0.00957802,0.0148991,0.00957802,6.39141,26.4492,39.6211
-0.0909797,0.416591,9.5816,0.00957802,0.0138349,0.0042569,6.39141,26.4492,39.6211
-0.11971,0.311246,9.46667,0.00638535,0.0159634,0.00638535,6.39141,26.4492,39.6211
-0.148441,0.335188,9.54808,0.00532112,0.0148991,0.0117065,6.39141,26.4492,39.6211
-0.134075,0.416591,9.53371,0.00744957,0.0159634,0.0106422,6.39141,26.4492,39.6211
-0.0622492,0.363919,9.5816,0.00532112,0.0148991,0.00851379,6.39141,26.4492,39.6211
-0.0670376,0.392649,9.55287,0.00851379,0.00957802,0.00638535,6.39141,26.4492,39.6211
-0.0766145,0.387861,9.57202,0.00851379,0.0127707,0.0106422,6.39141,26.4492,39.6211
-0.047884,0.35913,9.55765,0.00957802,0.0159634,0.00744957,6.39141,26.4492,39.6211
-0.0909797,0.354342,9.5816,0.00638535,0.0148991,0.00957802,6.39141,26.4492,39.6211
-0.0622492,0.392649,9.51456,0.00319267,0.0117065,0.0106422,6.39141,26.4492,39.6211
-0.129287,0.354342,9.48583,0.0042569,0.0117065,0.00957802,6.39141,26.4492,39.6211
-0.129287,0.411803,9.50019,0.00957802,0.0180918,0.00851379,6.39141,26.4492,39.6211
-0.0526724,0.387861,9.55765,0.00851379,0.0148991,0.00744957,6.39141,26.4492,39.6211
-0.124498,0.344765,9.48104,0.00532112,0.0127707,0.00851379,6.39141,26.4492,39.6211
-0.114922,0.397437,9.48583,0.00851379,0.0138349,0.0106422,6.39141,26.4492,39.6211
-0.0814029,0.397437,9.54808,0.00851379,0.0127707,0.00744957,6.39141,26.4492,39.6211
-0.071826,0.354342,9.44752,0.00851379,0.0148991,0.0117065,6.39141,26.4492,39.6211
-0.00957681,0.383072,9.47625,0.00638535,0.0148991,0.00851379,6.39141,26.4492,39.6211
-0.129287,0.426168,9.58638,0.00957802,0.0117065,0.00638535,6.39141,26.4492,39.6211
-0.0814029,0.258574,9.54329,0.0106422,0.0148991,0.00851379,6.39141,26.4492,39.6211
-0.11971,0.426168,9.4954,0.00744957,0.0148991,0.00851379,6.39141,26.4492,39.6211
-0.0670376,0.3304,9.62948,0.0042569,0.0148991,0.00957802,6.39141,26.4492,39.6211
-0.071826,0.45011,9.39964,0.00744957,0.0180918,0.0138349,6.39141,26.4492,39.6211
-0.124498,0.35913,9.57202,0.0106422,0.0148991,0.00851379,6.39141,26.4492,39.6211
-0.105345,0.316035,9.55765,0.0106422,0.019156,0.00638535,6.39141,26.4492,39.6211
-0.124498,0.387861,9.59117,0.00851379,0.0159634,0.0106422,6.39141,26.4492,39.6211
-0.110133,0.435745,9.59596,0.0106422,0.0127707,0.00957802,6.39141,26.4492,39.6211
-0.129287,0.411803,9.52413,0.00851379,0.0159634,0.00744957,6.39141,26.4492,39.6211
-0.0574608,0.349553,9.44752,0.00638535,0.0148991,0.00744957,6.39141,26.4492,39.6211
-0.0143652,0.407014,9.59117,0.00744957,0.0170276,0.0127707,6.39141,26.4492,39.6211
-0.0861913,0.469264,9.61511,0.00851379,0.0138349,0.0127707,6.39141,26.4492,39.6211
-0.11971,0.363919,9.45231,0.00744957,0.0117065,0.0117065,6.39141,26.4492,39.6211
-0.0909797,0.373495,9.49062,0.00532112,0.0148991,0.00532112,6.39141,26.4492,39.6211
-0.0814029,0.368707,9.57202,0.00744957,0.0106422,0.00638535,6.39141,26.4492,39.6211
-0.100556,0.306458,9.48104,0.00319267,0.00957802,0.00957802,6.39141,26.4492,39.6211
-0.134075,0.335188,9.50498,0.00638535,0.0138349,0.0106422,6.39141,26.4492,39.6211
-0.11971,0.282516,9.55765,0.00532112,0.0148991,0.0117065,6.39141,26.4492,39.6211
-0.0909797,0.368707,9.5385,0.00744957,0.0138349,0.0106422,6.39141,26.4492,39.6211
-0.0766145,0.344765,9.53371,0.00638535,0.0127707,0.00744957,6.39141,26.4492,39.6211
-0.0766145,0.363919,9.60075,0.00744957,0.0117065,0.00638535,6.39141,26.4492,39.6211
0.0191536,0.344765,9.48104,0.00532112,0.0138349,0.0138349,6.39141,26.4492,39.6211
-0.100556,0.426168,9.46667,0.00744957,0.0138349,0.00957802,6.39141,26.4492,39.6211
-0.110133,0.325611,9.55287,0.00851379,0.0159634,0.00744957,6.39141,26.4492,39.6211
-0.0814029,0.42138,9.60075,0.00638535,0.0127707,0.0106422,6.39141,26.4492,39.6211
-0.143652,0.383072,9.5816,0.00744957,0.0127707,0.0117065,6.39141,26.4492,39.6211
-0.153229,0.368707,9.59117,0.00744957,0.0127707,0.00851379,6.39141,26.4492,39.6211
-0.0814029,0.383072,9.45231,0.00744957,0.0138349,0.0117065,6.39141,26.4492,39.6211
-0.0143652,0.354342,9.65342,0.00638535,0.0159634,0.00957802,6.39141,26.4492,39.6211
-0.0622492,0.316035,9.52413,0.0042569,0.0148991,0.00957802,6.39141,26.4492,39.6211
-0.0191536,0.488417,9.5816,0.0106422,0.0138349,0.0117065,6.39141,26.4492,39.6211
-0.153229,0.426168,9.57681,0.00851379,0.0148991,0.00851379,6.39141,26.4492,39.6211
-0.124498,0.368707,9.61033,0.00851379,0.0106422,0.0138349,6.39141,26.4492,39.6211
-0.0861913,0.397437,9.48104,0.0148991,0.0117065,0.0138349,6.39141,26.4492,39.6211
-0.124498,0.430956,9.45231,0.00532112,0.0148991,0.00957802,6.39141,26.4492,39.6211
-0.11971,0.416591,9.49062,0.00532112,0.0127707,0.00744957,6.39141,26.4492,39.6211
-0.177171,0.397437,9.54329,0.00532112,0.0148991,0.00957802,6.39141,26.4492,39.6211
-0.124498,0.335188,9.57681,0.00744957,0.0159634,0.0117065,6.39141,26.4492,39.6211
-0.110133,0.344765,9.414,0.00851379,0.0159634,0.00744957,6.39141,26.4492,39.6211
-0.0909797,0.416591,9.54808,0.00532112,0.0148991,0.00957802,6.39141,26.4492,39.6211
