ax,ay,az,gx,gy,gz,mx,my,mx
3.62961,-1.61369,9.90721,-1.51758,0.786462,0.872664,-3559.48,75.416,31.1801
3.64398,-1.65679,9.97903,-1.51333,0.806682,0.8716,-0.177539,22.6963,28.4238
3.63919,-1.64242,9.90242,-1.50907,0.824774,0.863086,-0.177539,22.6963,28.4238
3.68707,-1.64242,9.83059,-1.50268,0.840737,0.853508,-0.177539,22.6963,28.4238
3.50511,-1.73819,9.75398,-1.49417,0.853508,0.850315,-0.177539,22.6963,28.4238
3.61046,-1.71425,9.82102,-1.49204,0.874792,0.841801,-0.177539,22.6963,28.4238
3.48117,-1.78129,9.69652,-1.48991,0.889691,0.834352,-0.177539,22.6963,28.4238
3.41413,-1.83875,9.52892,-1.48779,0.908848,0.829031,-0.177539,22.6963,28.4238
3.51469,-1.86269,9.52413,-1.47608,0.929068,0.821581,-0.177539,22.6963,28.4238
3.45244,-1.88184,9.55287,-1.47076,0.948224,0.812003,-0.177539,22.6963,28.4238
3.42371,-1.8579,9.44273,-1.4665,0.964187,0.810939,-0.177539,22.6963,28.4238
3.46202,-1.8579,9.48104,-1.46118,0.978022,0.801361,-0.177539,22.6963,28.4238
3.5099,-1.95846,9.34217,-1.45373,0.997178,0.798168,-0.177539,22.6963,28.4238
3.28484,-2.03507,9.39006,-1.45373,1.01314,0.791783,-0.177539,22.6963,28.4238
3.32794,-2.03507,9.23204,-1.44735,1.03123,0.786462,-0.177539,22.6963,28.4238
3.2609,-2.01592,9.26556,-1.44415,1.05039,0.783269,-0.177539,22.6963,28.4238
3.23696,-2.07817,9.09797,-1.43883,1.06742,0.779012,-0.177539,22.6963,28.4238
3.16035,-2.07817,9.05966,-1.43138,1.07912,0.782205,-0.177539,22.6963,28.4238
3.25611,-2.01592,9.10275,-1.42606,1.09402,0.774755,-0.177539,22.6963,28.4238
3.11725,-2.08774,9.08839,-1.42712,1.10999,0.767306,-0.177539,22.6963,28.4238
3.08373,-2.12605,9.03093,-1.41755,1.12595,0.76837,-0.177539,22.6963,28.4238
3.04542,-2.17394,8.9591,-1.41223,1.14298,0.763049,-0.177539,22.6963,28.4238
3.10289,-2.2314,8.83939,-1.4101,1.1632,0.758792,-0.177539,22.6963,28.4238
3.055,-2.24576,8.74362,-1.40371,1.1749,0.761985,-0.177539,22.6963,28.4238
2.90177,-2.20745,8.7963,-1.39733,1.18874,0.759856,-0.177539,22.6963,28.4238
2.96402,-2.30322,8.81545,-1.39413,1.20896,0.754535,-0.177539,22.6963,28.4238
2.9736,-2.26491,8.69095,-1.38668,1.22705,0.754535,-0.177539,22.6963,28.4238
2.91614,-2.3128,8.65743,-1.38243,1.23876,0.749214,-0.177539,22.6963,28.4238
2.92571,-2.4373,8.61434,-1.37604,1.25259,0.747085,-0.177539,22.6963,28.4238
2.86825,-2.36547,8.62391,-1.3654,1.26643,0.74815,-0.177539,22.6963,28.4238
2.80122,-2.43251,8.56167,-1.35901,1.28239,0.749214,-0.177539,22.6963,28.4238
2.84431,-2.53785,8.72447,-1.35689,1.29942,0.751342,-0.177539,22.6963,28.4238
2.806,-2.49955,8.61913,-1.35795,1.31112,0.747085,-0.177539,22.6963,28.4238
2.70066,-2.62405,8.47069,-1.34305,1.32602,0.744957,-0.177539,22.6963,28.4238
2.70545,-2.59531,8.37013,-1.32815,1.34412,0.741764,-0.177539,22.6963,28.4238
2.71502,-2.62405,8.36055,-1.32177,1.35901,0.741764,-0.177539,22.6963,28.4238
2.7246,-2.65278,8.4228,-1.31538,1.37285,0.737507,-0.177539,22.6963,28.4238
2.70545,-2.70066,8.43717,-1.31006,1.38881,0.738572,-0.177539,22.6963,28.4238
2.55222,-2.79164,8.4228,-1.30048,1.40903,0.737507,-0.177539,22.6963,28.4238
2.61926,-2.81558,8.41801,-1.29197,1.425,0.734315,-0.177539,22.6963,28.4238
2.67193,-2.84431,8.36055,-1.28133,1.44096,0.736443,-0.177539,22.6963,28.4238
2.54264,-2.87783,8.36534,-1.28239,1.45479,0.734315,-0.177539,22.6963,28.4238
2.50433,-2.85389,8.26478,-1.26323,1.47289,0.735379,-0.177539,22.6963,28.4238
2.45166,-2.89698,8.19775,-1.2494,1.48779,0.727929,-0.177539,22.6963,28.4238
2.48997,-2.85868,8.32224,-1.23663,1.49949,0.723673,-0.177539,22.6963,28.4238
2.43251,-3.00712,8.36534,-1.22386,1.52184,0.716223,-0.177539,22.6963,28.4238
2.41814,-2.9305,8.15465,-1.21534,1.53887,0.718351,-0.177539,22.6963,28.4238
2.35589,-2.99754,8.14507,-1.2047,1.5559,0.719416,-0.177539,22.6963,28.4238
2.36547,-3.03585,8.14507,-1.19193,1.57186,0.718351,-0.177539,22.6963,28.4238
2.35111,-2.99754,8.22648,-1.18129,1.58782,0.71303,-0.177539,22.6963,28.4238
2.30322,-3.08852,8.03494,-1.17278,1.60166,0.706645,-0.177539,22.6963,28.4238
2.3128,-3.00233,7.99663,-1.15362,1.61975,0.708773,-0.177539,22.6963,28.4238
2.26491,-3.04542,7.92481,-1.14191,1.63997,0.705581,-0.177539,22.6963,28.4238
2.2697,-3.10289,7.91523,-1.13659,1.65168,0.699195,-0.177539,22.6963,28.4238
2.28886,-3.08852,7.94396,-1.11956,1.67083,0.70026,-0.177539,22.6963,28.4238
2.15478,-3.14119,7.77637,-1.09828,1.68786,0.699195,-0.177539,22.6963,28.4238
2.18351,-3.08373,7.8051,-1.09189,1.70276,0.69281,-0.177539,22.6963,28.4238
2.14042,-3.14119,7.78594,-1.08551,1.72085,0.694938,-0.177539,22.6963,28.4238
2.11169,-3.18429,7.89608,-1.06635,1.73788,0.698131,-0.177539,22.6963,28.4238
2.02071,-3.18908,7.762,-1.05465,1.75597,0.690682,-0.177539,22.6963,28.4238
1.99198,-3.15556,7.80989,-1.04507,1.773,0.686425,-0.177539,22.6963,28.4238
2.05901,-3.15077,7.60877,-1.02804,1.78683,0.688553,-0.177539,22.6963,28.4238
1.99198,-3.10767,7.75243,-1.0174,1.80492,0.681104,-0.177539,22.6963,28.4238
1.92973,-3.15077,7.74764,-1.00782,1.82514,0.688553,-0.177539,22.6963,28.4238
1.88184,-3.07894,7.513,-0.988664,1.84111,0.686425,-0.177539,22.6963,28.4238
1.86269,-3.13162,7.61835,-0.974829,1.85175,0.683232,-0.177539,22.6963,28.4238
1.87227,-3.20344,7.6375,-0.958866,1.86559,0.683232,-0.177539,22.6963,28.4238
1.86748,-3.2609,7.64708,-0.952481,1.87836,0.682168,-0.177539,22.6963,28.4238
1.80523,-3.25611,7.48906,-0.940774,1.89219,0.684296,-0.177539,22.6963,28.4238
1.80523,-3.30879,7.54174,-0.922682,1.91241,0.680039,-0.177539,22.6963,28.4238
1.76213,-3.29921,7.513,-0.903526,1.92625,0.677911,-0.177539,22.6963,28.4238
1.69988,-3.42371,7.50343,-0.893948,1.93795,0.677911,-0.177539,22.6963,28.4238
1.61369,-3.49553,7.45076,-0.882242,1.95179,0.67259,-0.177539,22.6963,28.4238
1.64721,-3.32794,7.42681,-0.855636,1.96243,0.670461,-0.177539,22.6963,28.4238
1.61369,-3.33752,7.40287,-0.844994,1.97414,0.670461,-0.177539,22.6963,28.4238
1.70946,-3.41892,7.35499,-0.835416,1.98691,0.67259,-0.177539,22.6963,28.4238
1.5275,-3.47638,7.32626,-0.818388,2.00074,0.67259,-0.177539,22.6963,28.4238
1.58017,-3.40934,7.23528,-0.799232,2.00606,0.664076,-0.177539,22.6963,28.4238
1.5275,-3.45244,7.38851,-0.786462,2.01777,0.66514,-0.177539,22.6963,28.4238
1.61369,-3.43807,7.49864,-0.767306,2.02415,0.671526,-0.177539,22.6963,28.4238
1.48441,-3.45723,7.38372,-0.757728,2.04012,0.667269,-0.177539,22.6963,28.4238
1.5706,-3.54821,7.24485,-0.739636,2.04331,0.663012,-0.177539,22.6963,28.4238
1.43173,-3.62003,7.32626,-0.717287,2.05395,0.663012,-0.177539,22.6963,28.4238
1.35033,-3.5099,7.35499,-0.699195,2.06034,0.667269,-0.177539,22.6963,28.4238
1.54187,-3.58173,7.11078,-0.686425,2.06247,0.66514,-0.177539,22.6963,28.4238
1.30723,-3.64398,7.12993,-0.667269,2.06885,0.664076,10.1197,31.6318,31.5246
1.29287,-3.6344,7.1826,-0.648113,2.08056,0.666204,10.1197,31.6318,31.5246
1.17316,-3.62482,7.20655,-0.633213,2.08269,0.664076,10.1197,31.6318,31.5246
1.13006,-3.68707,7.16824,-0.623635,2.08588,0.661947,10.1197,31.6318,31.5246
1.00078,-3.61046,7.08684,-0.599158,2.09439,0.666204,10.1197,31.6318,31.5246
0.919373,-3.73017,7.09163,-0.575745,2.09759,0.667269,10.1197,31.6318,31.5246
0.972046,-3.64398,7.13472,-0.56191,2.09971,0.663012,10.1197,31.6318,31.5246
0.852336,-3.68707,7.08205,-0.544883,2.10078,0.66514,10.1197,31.6318,31.5246
0.857124,-3.62961,6.92403,-0.520406,2.10397,0.66514,10.1197,31.6318,31.5246
0.818817,-3.62961,7.07726,-0.509763,2.11036,0.66514,10.1197,31.6318,31.5246
0.766145,-3.67271,7.04374,-0.495929,2.11781,0.667269,10.1197,31.6318,31.5246
0.78051,-3.77805,7.06289,-0.483158,2.11781,0.66514,10.1197,31.6318,31.5246
0.737414,-3.77326,6.88094,-0.46613,2.11993,0.660883,10.1197,31.6318,31.5246
0.699107,-3.76368,6.77559,-0.448038,2.12206,0.667269,10.1197,31.6318,31.5246
0.603339,-3.69186,6.83305,-0.428882,2.11993,0.668333,10.1197,31.6318,31.5246
0.593762,-3.7158,6.72292,-0.413983,2.12206,0.664076,10.1197,31.6318,31.5246
0.646434,-3.74453,6.61278,-0.402277,2.12526,0.667269,10.1197,31.6318,31.5246
0.574608,-3.65834,6.58405,-0.384185,2.13271,0.670461,10.1197,31.6318,31.5246
0.483629,-3.70144,6.53617,-0.372478,2.12845,0.671526,10.1197,31.6318,31.5246
0.387861,-3.60567,6.58405,-0.360772,2.13058,0.677911,10.1197,31.6318,31.5246
0.493206,-3.66313,6.61757,-0.35013,2.13271,0.675782,10.1197,31.6318,31.5246
0.469264,-3.56257,6.51223,-0.334166,2.1359,0.670461,10.1197,31.6318,31.5246
0.42138,-3.61524,6.49307,-0.321396,2.1359,0.671526,10.1197,31.6318,31.5246
0.426168,-3.60088,6.49307,-0.312882,2.13377,0.674718,10.1197,31.6318,31.5246
0.387861,-3.53384,6.38773,-0.304368,2.13696,0.678975,10.1197,31.6318,31.5246
0.411803,-3.50032,6.43561,-0.291597,2.13909,0.680039,10.1197,31.6318,31.5246
0.316035,-3.67749,6.4404,-0.277763,2.13909,0.68536,10.1197,31.6318,31.5246
0.344765,-3.50032,6.24408,-0.270313,2.14122,0.686425,10.1197,31.6318,31.5246
0.263362,-3.47638,6.34463,-0.264992,2.14548,0.686425,10.1197,31.6318,31.5246
0.186748,-3.44286,6.25365,-0.255414,2.14548,0.687489,10.1197,31.6318,31.5246
0.191536,-3.54821,6.14831,-0.244772,2.14654,0.691746,10.1197,31.6318,31.5246
0.287304,-3.49075,6.19619,-0.236258,2.14548,0.694938,10.1197,31.6318,31.5246
0.153229,-3.4668,6.0286,-0.230937,2.14228,0.691746,10.1197,31.6318,31.5246
0.253785,-3.24175,5.97593,-0.218166,2.14122,0.69281,10.1197,31.6318,31.5246
0.354342,-2.82037,5.95677,-0.204331,2.14016,0.693874,10.1197,31.6318,31.5246
0.215478,-2.81558,6.27281,-0.187303,2.13803,0.693874,10.1197,31.6318,31.5246
0.110133,-2.5187,6.30154,-0.170276,2.14228,0.690682,10.1197,31.6318,31.5246
0.0814029,-2.53307,6.36858,-0.159634,2.1476,0.693874,10.1197,31.6318,31.5246
0.0047884,-2.67193,6.47392,-0.158569,2.14548,0.693874,10.1197,31.6318,31.5246
0.0622492,-2.86825,6.49786,-0.156441,2.1508,0.686425,10.1197,31.6318,31.5246
-0.0191536,-2.99275,6.42125,-0.144735,2.15186,0.684296,10.1197,31.6318,31.5246
0.205901,-2.75812,6.79953,-0.139413,2.14122,0.687489,10.1197,31.6318,31.5246
0.177171,-3.93607,6.22971,-0.146863,2.13377,0.691746,10.1197,31.6318,31.5246
0.742203,-5.60243,4.84108,-0.15112,2.14335,0.691746,10.1197,31.6318,31.5246
-0.253785,-4.22816,5.39174,-0.131964,2.1508,0.703452,10.1197,31.6318,31.5246
-0.488417,-4.07493,6.9767,-0.108551,2.15718,0.704516,10.1197,31.6318,31.5246
-0.0287304,-3.96001,7.13472,-0.110679,2.14016,0.704516,10.1197,31.6318,31.5246
0.110133,-4.03184,5.19542,-0.112808,2.1476,0.709838,10.1197,31.6318,31.5246
-0.311246,-3.97437,4.82671,-0.0883306,2.16038,0.706645,10.1197,31.6318,31.5246
-0.335188,-3.18429,6.24408,-0.0702388,2.14973,0.697067,10.1197,31.6318,31.5246
-0.430956,-3.37104,7.21612,-0.0766241,2.15399,0.689617,10.1197,31.6318,31.5246
-0.469264,-3.78763,5.88495,-0.0840737,2.1806,0.677911,10.1197,31.6318,31.5246
-0.976834,-3.86903,4.98473,-0.0659819,2.18592,0.68536,10.1197,31.6318,31.5246
-0.933739,-3.32794,5.81312,-0.0297983,2.1625,0.689617,10.1197,31.6318,31.5246
-0.699107,-3.08852,6.49307,-0.0223487,2.14654,0.68536,10.1197,31.6318,31.5246
-0.632069,-3.13162,5.92804,-0.032991,2.15612,0.682168,10.1197,31.6318,31.5246
-0.799663,-3.44286,5.60722,-0.0351194,2.17208,0.67259,10.1197,31.6318,31.5246
-0.952892,-3.70144,5.67426,-0.0223487,2.17847,0.668333,10.1197,31.6318,31.5246
-1.06303,-3.87861,5.79876,-0.0042569,2.17421,0.673654,10.1197,31.6318,31.5246
-0.948104,-3.73974,5.57849,0.0117065,2.16038,0.671526,10.1197,31.6318,31.5246
-0.703895,-3.73974,5.59285,0.0308625,2.14867,0.661947,10.1197,31.6318,31.5246
-0.684742,-3.73974,5.75087,0.0436332,2.14548,0.659819,10.1197,31.6318,31.5246
-0.708684,-3.78763,5.85143,0.0564039,2.15186,0.652369,10.1197,31.6318,31.5246
-0.761356,-3.8834,5.79876,0.0755599,2.15399,0.647048,10.1197,31.6318,31.5246
-0.857124,-3.84988,5.60722,0.0893948,2.1476,0.64492,10.1197,31.6318,31.5246
-0.861913,-3.8403,5.76524,0.104294,2.14016,0.647048,10.1197,31.6318,31.5246
-0.924162,-3.96001,5.88495,0.117065,2.13377,0.643856,10.1197,31.6318,31.5246
-0.981623,-3.89297,5.6982,0.125578,2.13058,0.640663,10.1197,31.6318,31.5246
-0.943315,-3.85945,5.79876,0.139413,2.12951,0.640663,10.1197,31.6318,31.5246
-1.03908,-3.93128,5.67905,0.154313,2.12419,0.642791,10.1197,31.6318,31.5246
-1.11091,-3.8834,5.61201,0.168147,2.11674,0.638535,10.1197,31.6318,31.5246
-1.10612,-3.93607,5.55934,0.179854,2.1061,0.634278,10.1197,31.6318,31.5246
-1.23541,-4.12282,5.51624,0.200074,2.09759,0.631085,10.1197,31.6318,31.5246
-1.10133,-4.11324,5.4923,0.221359,2.09546,0.633213,10.1197,31.6318,31.5246
-1.13485,-3.95522,5.42526,0.229872,2.09226,0.631085,10.1197,31.6318,31.5246
-1.23541,-3.93128,5.39653,0.243707,2.08694,0.623635,10.1197,31.6318,31.5246
-1.21625,-3.84988,5.46357,0.256478,2.08269,0.627892,10.1197,31.6318,31.5246
-1.1971,-3.75411,5.35822,0.270313,2.0763,0.625764,10.1197,31.6318,31.5246
-1.2402,-3.79242,5.4109,0.284148,2.06885,0.619379,10.1197,31.6318,31.5246
-1.2402,-3.86903,5.34865,0.291597,2.06566,0.614057,10.1197,31.6318,31.5246
-1.2785,-3.89297,5.34865,0.301175,2.06353,0.612993,10.1197,31.6318,31.5246
-1.34554,-3.88818,5.33428,0.320332,2.05182,0.612993,10.1197,31.6318,31.5246
-1.28329,-4.00311,5.39653,0.337359,2.04331,0.615122,10.1197,31.6318,31.5246
-1.34075,-3.98874,5.43005,0.348001,2.04012,0.609801,10.1197,31.6318,31.5246
-1.29766,-3.82593,5.34386,0.363965,2.03799,0.607672,10.1197,31.6318,31.5246
-1.39343,-3.80199,5.13796,0.363965,2.0316,0.601287,10.1197,31.6318,31.5246
-1.31202,-3.87861,5.31034,0.372478,2.02415,0.602351,10.1197,31.6318,31.5246
-1.38864,-3.91691,4.94642,0.389506,2.01351,0.600222,10.1197,31.6318,31.5246
-1.47483,-3.95522,5.00867,0.403341,2.00606,0.598094,10.1197,31.6318,31.5246
-1.5275,-3.96959,4.9129,0.413983,1.99968,0.598094,10.1197,31.6318,31.5246
-1.37906,-3.93128,5.06134,0.431011,1.98797,0.58958,11.185,45.2139,34.6254
-1.46525,-3.84988,5.0374,0.433139,1.98159,0.587452,11.185,45.2139,34.6254
-1.5706,-3.77326,5.00388,0.439525,1.97626,0.593837,11.185,45.2139,34.6254
-1.6089,-3.73974,5.04698,0.455488,1.96775,0.586388,11.185,45.2139,34.6254
-1.61369,-3.78284,5.00388,0.467194,1.95392,0.585323,11.185,45.2139,34.6254
-1.64721,-3.83072,4.92248,0.472516,1.94008,0.580002,11.185,45.2139,34.6254
-1.7334,-3.91691,4.96079,0.483158,1.93582,0.581066,11.185,45.2139,34.6254
-1.78607,-3.87382,5.0805,0.492736,1.92092,0.580002,11.185,45.2139,34.6254
-1.77171,-3.89297,5.03261,0.502314,1.91135,0.575745,11.185,45.2139,34.6254
-1.81959,-3.74932,4.82671,0.510828,1.9007,0.57681,11.185,45.2139,34.6254
-1.81959,-3.80199,4.91769,0.523598,1.89219,0.578938,11.185,45.2139,34.6254
-1.85311,-3.82593,4.9129,0.531048,1.87942,0.578938,11.185,45.2139,34.6254
-1.87227,-3.8403,4.84586,0.54169,1.86452,0.572553,11.185,45.2139,34.6254
-1.91536,-3.9648,4.78362,0.547011,1.85814,0.570424,11.185,45.2139,34.6254
-1.92973,-3.96959,4.65912,0.559782,1.84643,0.571488,11.185,45.2139,34.6254
-1.9393,-3.99353,4.76446,0.573617,1.83153,0.568296,11.185,45.2139,34.6254
-2.06859,-3.92649,4.81713,0.578938,1.8177,0.572553,11.185,45.2139,34.6254
-2.02071,-3.8834,4.81713,0.586388,1.80812,0.572553,11.185,45.2139,34.6254
-2.08774,-3.78763,4.80277,0.594901,1.79747,0.56936,11.185,45.2139,34.6254
-2.10211,-3.82593,4.59687,0.604479,1.7847,0.571488,11.185,45.2139,34.6254
-2.17394,-3.85466,4.86981,0.614057,1.77193,0.570424,11.185,45.2139,34.6254
-2.15957,-3.86424,4.76446,0.619379,1.75916,0.570424,11.185,45.2139,34.6254
-2.20267,-3.95043,4.82192,0.626828,1.74958,0.571488,11.185,45.2139,34.6254
-2.16915,-3.86903,4.75488,0.640663,1.73256,0.577874,11.185,45.2139,34.6254
-2.26491,-3.98874,4.77404,0.653434,1.72085,0.577874,11.185,45.2139,34.6254
-2.25534,-3.89297,4.81235,0.664076,1.71447,0.580002,11.185,45.2139,34.6254
-2.42293,-3.8403,4.82192,0.670461,1.70063,0.583195,11.185,45.2139,34.6254
-2.38941,-3.88818,4.707,0.681104,1.68786,0.581066,11.185,45.2139,34.6254
-2.32238,-3.90734,4.72137,0.698131,1.68041,0.586388,11.185,45.2139,34.6254
-2.41336,-3.87861,4.86502,0.707709,1.6719,0.584259,11.185,45.2139,34.6254
-2.47082,-3.70622,4.71658,0.716223,1.65913,0.58958,11.185,45.2139,34.6254
-2.43251,-3.82593,4.7501,0.728994,1.64742,0.598094,11.185,45.2139,34.6254
-2.42293,-3.83551,4.7884,0.742829,1.63358,0.599158,11.185,45.2139,34.6254
-2.50433,-3.72538,4.86981,0.753471,1.62401,0.605544,11.185,45.2139,34.6254
-2.62405,-3.70144,4.93684,0.764113,1.62294,0.606608,11.185,45.2139,34.6254
-2.6001,-3.65834,4.84586,0.776884,1.6123,0.610865,11.185,45.2139,34.6254
-2.52828,-3.72059,4.98473,0.794976,1.59102,0.612993,11.185,45.2139,34.6254
-2.62405,-3.72059,4.93206,0.802425,1.58569,0.618314,11.185,45.2139,34.6254
-2.57616,-3.67271,4.94642,0.807746,1.57931,0.621507,11.185,45.2139,34.6254
-2.58574,-3.7158,5.05655,0.820517,1.56973,0.620443,11.185,45.2139,34.6254
-2.75333,-3.75411,4.96079,0.831159,1.55909,0.630021,11.185,45.2139,34.6254
-2.63362,-3.61524,4.90811,0.847123,1.55164,0.635342,11.185,45.2139,34.6254
-2.77249,-3.68228,4.97036,0.855636,1.54845,0.636406,11.185,45.2139,34.6254
-2.72939,-3.58651,4.98473,0.870535,1.53887,0.643856,11.185,45.2139,34.6254
-2.82516,-3.65834,4.94642,0.882242,1.52823,0.642791,11.185,45.2139,34.6254
-2.84431,-3.63919,4.86502,0.890756,1.52078,0.647048,11.185,45.2139,34.6254
-2.7677,-3.61046,4.97515,0.89927,1.50801,0.653434,11.185,45.2139,34.6254
-2.84431,-3.62482,4.97515,0.914169,1.49949,0.658755,11.185,45.2139,34.6254
-2.78685,-3.53384,4.96079,0.930132,1.49311,0.664076,11.185,45.2139,34.6254
-2.77249,-3.7589,4.88896,0.934389,1.47714,0.664076,11.185,45.2139,34.6254
-2.77727,-3.5913,4.94642,0.935453,1.46757,0.668333,11.185,45.2139,34.6254
-2.81558,-3.58173,5.04219,0.945031,1.45905,0.669397,11.185,45.2139,34.6254
-2.78206,-3.5099,4.93206,0.962059,1.44841,0.673654,11.185,45.2139,34.6254
-2.82995,-3.54821,4.90811,0.973765,1.4399,0.677911,11.185,45.2139,34.6254
-2.89698,-3.54821,4.88417,0.980151,1.43138,0.678975,11.185,45.2139,34.6254
-2.86825,-3.51948,4.956,0.985472,1.42074,0.677911,11.185,45.2139,34.6254
-2.90177,-3.50032,4.90333,0.996114,1.40903,0.680039,11.185,45.2139,34.6254
-3.02627,-3.39977,5.05177,1.00037,1.39626,0.677911,11.185,45.2139,34.6254
-2.93529,-3.49553,5.11401,1.00888,1.38562,0.683232,11.185,45.2139,34.6254
-3.07415,-3.39977,4.96079,1.0174,1.37391,0.686425,11.185,45.2139,34.6254
-3.00233,-3.38061,4.84586,1.02485,1.35795,0.69281,11.185,45.2139,34.6254
-3.04064,-3.40455,5.13796,1.03443,1.34731,0.69281,11.185,45.2139,34.6254
-3.05979,-3.41413,5.04698,1.03762,1.33454,0.69281,11.185,45.2139,34.6254
-3.05979,-3.41413,4.98952,1.044,1.32389,0.69281,11.185,45.2139,34.6254
-3.14119,-3.27048,4.93206,1.05145,1.31219,0.693874,11.185,45.2139,34.6254
-3.01669,-3.35188,5.00867,1.05358,1.30048,0.699195,11.185,45.2139,34.6254
-3.16992,-3.304,4.98952,1.05784,1.28665,0.702388,11.185,45.2139,34.6254
-3.13162,-3.43329,4.88417,1.06316,1.26749,0.702388,11.185,45.2139,34.6254
-3.07415,-3.34231,4.99909,1.06848,1.25472,0.702388,11.185,45.2139,34.6254
-3.11725,-3.3854,4.96079,1.07912,1.23982,0.705581,11.185,45.2139,34.6254
-3.11725,-3.34231,4.95121,1.07593,1.21854,0.710902,11.185,45.2139,34.6254
-3.20823,-3.28963,4.97515,1.07806,1.20044,0.714095,11.185,45.2139,34.6254
-3.10767,-3.21781,5.00867,1.08125,1.1898,0.716223,11.185,45.2139,34.6254
-3.15077,-3.21781,4.7884,1.08657,1.17384,0.718351,11.185,45.2139,34.6254
-3.21781,-3.2226,4.86023,1.09083,1.15681,0.717287,11.185,45.2139,34.6254
-3.21781,-3.19387,4.82192,1.08764,1.13978,0.716223,11.185,45.2139,34.6254
-3.25611,-3.0981,4.73573,1.09296,1.12169,0.72048,11.185,45.2139,34.6254
-3.23217,-3.14119,4.79798,1.09615,1.10147,0.725801,11.185,45.2139,34.6254
-3.39019,-3.07415,4.956,1.09615,1.08338,0.727929,11.185,45.2139,34.6254
-3.28484,-3.03106,4.71658,1.09615,1.06529,0.735379,11.185,45.2139,34.6254
-3.25611,-2.99754,4.956,1.10041,1.04933,0.741764,11.185,45.2139,34.6254
-3.37104,-2.98796,4.86981,1.10147,1.03336,0.74815,11.185,45.2139,34.6254
-3.32794,-2.95444,4.71179,1.10147,1.01633,0.751342,11.185,45.2139,34.6254
-3.36625,-3.01191,4.87459,1.1036,0.99505,0.754535,11.185,45.2139,34.6254
-3.39498,-2.98796,5.02304,1.10254,0.976958,0.763049,11.185,45.2139,34.6254
-3.41892,-2.91614,4.86981,1.09509,0.960995,0.767306,11.185,45.2139,34.6254
-3.5099,-2.90656,4.7884,1.10041,0.938646,0.772627,11.185,45.2139,34.6254
-3.60567,-2.86825,4.78362,1.10254,0.920554,0.780076,11.185,45.2139,34.6254
-3.553,-2.90656,4.87459,1.10466,0.903526,0.789654,11.185,45.2139,34.6254
-3.55778,-2.91135,4.99909,1.1036,0.885435,0.78859,11.185,45.2139,34.6254
-3.58651,-2.87304,4.9129,1.1036,0.866279,0.793911,11.185,45.2139,34.6254
-3.66313,-2.66714,4.89854,1.10679,0.84393,0.802425,6.74648,52.8984,34.1086
-3.66313,-2.76291,5.04698,1.10786,0.825838,0.810939,6.74648,52.8984,34.1086
-3.56736,-2.80122,4.92248,1.10573,0.807746,0.819453,6.74648,52.8984,34.1086
-3.70622,-2.71502,4.94642,1.10466,0.790719,0.824774,6.74648,52.8984,34.1086
-3.73495,-2.63841,4.956,1.10679,0.774755,0.833288,6.74648,52.8984,34.1086
-3.58651,-2.60968,4.97036,1.11105,0.752407,0.834352,6.74648,52.8984,34.1086
-3.63919,-2.66714,5.01825,1.1185,0.731122,0.844994,6.74648,52.8984,34.1086
-3.62961,-2.58574,5.12359,1.11744,0.71303,0.851379,6.74648,52.8984,34.1086
-3.72059,-2.58095,5.0805,1.11105,0.693874,0.849251,6.74648,52.8984,34.1086
-3.87861,-2.62405,5.13317,1.11424,0.681104,0.856701,6.74648,52.8984,34.1086
-3.85466,-2.54264,5.38217,1.11318,0.659819,0.867343,6.74648,52.8984,34.1086
-3.91213,-2.5618,5.39174,1.10999,0.63747,0.876921,6.74648,52.8984,34.1086
-3.87861,-2.5187,5.29597,1.11211,0.61725,0.883306,6.74648,52.8984,34.1086
-3.89776,-2.5187,5.2864,1.11424,0.600222,0.879049,6.74648,52.8984,34.1086
-3.77805,-2.59531,5.26724,1.11531,0.581066,0.883306,6.74648,52.8984,34.1086
-3.86903,-2.44687,5.29119,1.11424,0.560846,0.889691,6.74648,52.8984,34.1086
-3.83072,-2.40857,5.36301,1.11105,0.545947,0.895013,6.74648,52.8984,34.1086
-3.90734,-2.42293,5.39174,1.11211,0.528919,0.901398,6.74648,52.8984,34.1086
-3.9217,-2.34632,5.31992,1.11318,0.503378,0.904591,6.74648,52.8984,34.1086
-4.01268,-2.36068,5.50188,1.10679,0.487415,0.909912,6.74648,52.8984,34.1086
-3.89297,-2.30322,5.41568,1.10573,0.469323,0.910976,6.74648,52.8984,34.1086
-3.91213,-2.28407,5.40132,1.11211,0.450167,0.91204,6.74648,52.8984,34.1086
-3.96001,-2.23618,5.40611,1.10679,0.435268,0.917361,6.74648,52.8984,34.1086
-3.94086,-2.15957,5.48751,1.1036,0.419304,0.920554,6.74648,52.8984,34.1086
-3.91213,-2.24097,5.29597,1.10679,0.402277,0.926939,6.74648,52.8984,34.1086
-3.94564,-2.19788,5.46357,1.1036,0.384185,0.922682,6.74648,52.8984,34.1086
-3.95522,-2.09253,5.46836,1.10254,0.373543,0.925875,6.74648,52.8984,34.1086
-3.98874,-1.85311,5.51145,1.10041,0.354387,0.931196,6.74648,52.8984,34.1086
-3.93607,-1.92973,5.45878,1.09934,0.336295,0.935453,6.74648,52.8984,34.1086
-3.9648,-2.03028,5.57849,1.09509,0.324588,0.941839,6.74648,52.8984,34.1086
-3.9648,-1.91536,5.46836,1.09296,0.308625,0.940774,6.74648,52.8984,34.1086
-4.07493,-1.80044,5.55934,1.09402,0.293726,0.938646,6.74648,52.8984,34.1086
-3.95522,-1.7765,5.55455,1.08764,0.278827,0.93971,6.74648,52.8984,34.1086
-4.07972,-1.75734,5.6168,1.08657,0.264992,0.942903,6.74648,52.8984,34.1086
-3.96001,-1.79086,5.56412,1.08657,0.251157,0.946095,6.74648,52.8984,34.1086
-3.97437,-1.66636,5.60243,1.08444,0.237322,0.948224,6.74648,52.8984,34.1086
-4.01268,-1.59933,5.65989,1.08338,0.224551,0.946095,6.74648,52.8984,34.1086
-3.99353,-1.64721,5.68862,1.08125,0.214973,0.951416,6.74648,52.8984,34.1086
-4.05099,-1.73819,5.77481,1.077,0.201138,0.94716,6.74648,52.8984,34.1086
-4.07014,-1.61369,5.64553,1.07167,0.187303,0.943967,6.74648,52.8984,34.1086
-4.1707,-1.59933,5.80354,1.07061,0.176661,0.950352,6.74648,52.8984,34.1086
-4.0893,-1.58017,5.87058,1.07274,0.160698,0.945031,6.74648,52.8984,34.1086
-4.05578,-1.50835,5.85622,1.07274,0.148991,0.938646,6.74648,52.8984,34.1086
-4.11324,-1.48919,5.83706,1.06848,0.136221,0.936517,6.74648,52.8984,34.1086
-4.14197,-1.50356,5.90889,1.07167,0.126643,0.93226,6.74648,52.8984,34.1086
-4.10366,-1.49398,5.95677,1.06848,0.117065,0.930132,6.74648,52.8984,34.1086
-4.00789,-1.46525,5.87058,1.06529,0.100037,0.925875,6.74648,52.8984,34.1086
-4.11324,-1.4461,5.91368,1.06103,0.0840737,0.916297,6.74648,52.8984,34.1086
-4.11324,-1.57538,5.9041,1.0621,0.0723673,0.908848,6.74648,52.8984,34.1086
-4.07493,-1.42694,5.88495,1.05677,0.061725,0.906719,6.74648,52.8984,34.1086
-4.08451,-1.4461,5.9472,1.05571,0.0468259,0.901398,6.74648,52.8984,34.1086
-4.05578,-1.54665,5.81312,1.05677,0.032991,0.892884,6.74648,52.8984,34.1086
-4.02705,-1.51314,5.95199,1.05358,0.0276698,0.886499,6.74648,52.8984,34.1086
-3.96001,-1.38864,5.92325,1.05252,0.0106422,0.885435,6.74648,52.8984,34.1086
-4.07014,-1.45567,6.03339,1.05039,-0.00532112,0.872664,6.74648,52.8984,34.1086
-4.05099,-1.35991,5.83706,1.05465,-0.0159634,0.863086,6.74648,52.8984,34.1086
-4.07493,-1.39343,5.89931,1.05252,-0.0319267,0.857765,6.74648,52.8984,34.1086
-4.09887,-1.37427,5.94241,1.04933,-0.042569,0.852444,6.74648,52.8984,34.1086
-4.09408,-1.21147,5.87537,1.05571,-0.0564039,0.84393,6.74648,52.8984,34.1086
-4.08451,-1.24498,6.08606,1.05358,-0.0702388,0.832223,6.74648,52.8984,34.1086
-4.0462,-1.33596,6.06691,1.05784,-0.0862022,0.826902,6.74648,52.8984,34.1086
-4.05578,-1.20189,6.0717,1.05571,-0.0936517,0.818388,6.74648,52.8984,34.1086
-4.16591,-1.2402,5.99029,1.05465,-0.101101,0.814132,6.74648,52.8984,34.1086
-4.06535,-1.26414,6.11958,1.06529,-0.119193,0.801361,6.74648,52.8984,34.1086
-4.07972,-1.20668,6.12916,1.06422,-0.133028,0.792847,6.74648,52.8984,34.1086
-4.0462,-1.26893,6.14831,1.06742,-0.146863,0.78859,6.74648,52.8984,34.1086
-4.22816,-1.08697,5.99029,1.06955,-0.161762,0.780076,6.74648,52.8984,34.1086
-4.18506,-1.15401,6.06691,1.07061,-0.169212,0.775819,6.74648,52.8984,34.1086
-4.18028,-1.21147,6.17225,1.077,-0.184111,0.767306,6.74648,52.8984,34.1086
-4.19943,-1.13006,6.11958,1.07912,-0.195817,0.756663,6.74648,52.8984,34.1086
-4.30477,-1.15879,6.12916,1.08764,-0.20646,0.74815,6.74648,52.8984,34.1086
-4.28562,-1.09654,6.22014,1.08444,-0.223487,0.737507,6.74648,52.8984,34.1086
-4.20422,-1.18752,6.32548,1.09083,-0.237322,0.731122,6.74648,52.8984,34.1086
-4.27604,-1.2402,6.30633,1.09722,-0.244772,0.725801,6.74648,52.8984,34.1086
-4.25689,-1.1971,6.23929,1.1036,-0.260735,0.72048,6.74648,52.8984,34.1086
-4.24253,-1.14922,6.46434,1.10679,-0.273506,0.711966,6.74648,52.8984,34.1086
-4.26647,-1.12049,6.37815,1.11105,-0.284148,0.710902,6.74648,52.8984,34.1086
-4.29999,-1.18274,6.30154,1.11211,-0.300111,0.706645,6.74648,52.8984,34.1086
-4.28083,-1.11091,6.33506,1.12595,-0.316075,0.69281,6.74648,52.8984,34.1086
-4.36224,-1.20189,6.37336,1.12914,-0.327781,0.687489,6.74648,52.8984,34.1086
-4.46758,-1.06781,6.45477,1.13659,-0.338423,0.678975,6.74648,52.8984,34.1086
-4.48673,-1.08218,6.51702,1.14085,-0.35013,0.674718,6.74648,52.8984,34.1086
-4.5011,-1.09176,6.54096,1.13978,-0.358644,0.668333,6.74648,52.8984,34.1086
-4.5825,-0.976834,6.54096,1.15468,-0.372478,0.655562,6.74648,52.8984,34.1086
-4.52025,-0.914585,6.75165,1.15788,-0.385249,0.651305,6.74648,52.8984,34.1086
-4.49152,-1.00556,6.69898,1.16426,-0.399084,0.649177,6.74648,52.8984,34.1086
-4.43885,-0.991199,6.70855,1.17278,-0.409726,0.641727,6.74648,52.8984,34.1086
-4.55377,-0.986411,6.74686,1.17597,-0.420369,0.638535,6.74648,52.8984,34.1086
-4.49631,-0.92895,6.78517,1.18022,-0.433139,0.623635,6.74648,52.8984,34.1086
-4.44364,-0.943315,6.76601,1.18342,-0.448038,0.618314,6.74648,52.8984,34.1086
-4.53941,-0.919373,6.78517,1.18874,-0.460809,0.611929,6.74648,52.8984,34.1086
-4.56335,-0.770933,6.76601,1.19406,-0.47358,0.610865,6.74648,52.8984,34.1086
-4.45322,-0.837971,6.80911,1.20364,-0.487415,0.603415,6.74648,52.8984,34.1086
-4.52983,-0.828394,6.78038,1.20577,-0.500185,0.594901,6.74648,52.8984,34.1086
-4.41012,-0.814029,6.84263,1.21109,-0.509763,0.585323,6.74648,52.8984,34.1086
-4.47237,-0.799663,6.91445,1.21002,-0.52147,0.573617,6.74648,52.8984,34.1086
-4.46279,-0.732626,6.96234,1.21534,-0.540626,0.572553,6.74648,52.8984,34.1086
-4.43406,-0.699107,6.92882,1.22173,-0.555525,0.570424,6.74648,52.8984,34.1086
-4.51068,-0.550666,6.90967,1.2196,-0.56936,0.557654,6.74648,52.8984,34.1086
-4.45322,-0.588974,6.83305,1.21534,-0.584259,0.547011,6.74648,52.8984,34.1086
-4.40533,-0.608127,6.89051,1.22279,-0.594901,0.543819,6.74648,52.8984,34.1086
-4.38139,-0.512359,6.98628,1.22067,-0.611929,0.539562,6.74648,52.8984,34.1086
-4.38139,-0.517148,6.89051,1.22279,-0.626828,0.531048,6.74648,52.8984,34.1086
-4.29999,-0.464475,6.94318,1.22811,-0.640663,0.523598,6.74648,52.8984,34.1086
-4.2952,-0.435745,6.91445,1.22599,-0.657691,0.512956,6.74648,52.8984,34.1086
-4.25689,-0.320823,6.86657,1.22279,-0.675782,0.502314,6.74648,52.8984,34.1086
-4.17549,-0.383072,6.96713,1.22173,-0.690682,0.498057,6.74648,52.8984,34.1086
-4.2521,-0.301669,7.01501,1.22173,-0.703452,0.492736,6.74648,52.8984,34.1086
-4.11324,-0.248997,6.90967,1.21322,-0.717287,0.482094,6.74648,52.8984,34.1086
-4.22816,-0.172383,6.97192,1.21747,-0.736443,0.46613,6.74648,52.8984,34.1086
-4.0893,-0.0909797,6.82826,1.21747,-0.750278,0.460809,6.74648,52.8984,34.1086
-4.18028,-0.0909797,7.06289,1.21322,-0.761985,0.456552,6.74648,52.8984,34.1086
-4.03184,-0.071826,7.18739,1.2047,-0.783269,0.449103,6.74648,52.8984,34.1086
-4.13239,0.00957681,6.94797,1.2047,-0.798168,0.440589,6.74648,52.8984,34.1086
-4.0893,-0.00957681,7.11557,1.19938,-0.81626,0.428882,6.74648,52.8984,34.1086
-4.05578,-0.00957681,7.12993,1.193,-0.835416,0.41824,6.74648,52.8984,34.1086
-4.13239,0.0526724,7.17782,1.193,-0.846058,0.403341,6.74648,52.8984,34.1086
-3.95522,0.047884,7.15866,1.18555,-0.862022,0.396956,6.74648,52.8984,34.1086
-3.95043,0.0957681,7.15866,1.17703,-0.874792,0.39057,6.74648,52.8984,34.1086
-4.00789,0.114922,7.17782,1.17278,-0.892884,0.384185,6.74648,52.8984,34.1086
-4.00311,0.181959,7.07247,1.17278,-0.914169,0.373543,6.74648,52.8984,34.1086
-3.8403,0.143652,7.11078,1.1632,-0.934389,0.360772,6.74648,52.8984,34.1086
-3.94564,0.162806,7.02938,1.15788,-0.948224,0.352258,6.74648,52.8984,34.1086
-3.94564,0.205901,7.13951,1.14723,-0.963123,0.352258,6.74648,52.8984,34.1086
-3.93607,0.234632,7.19218,1.1483,-0.981215,0.344809,6.74648,52.8984,34.1086
-3.84988,0.181959,7.23049,1.14085,-0.991857,0.32991,6.74648,52.8984,34.1086
-3.85466,0.282516,7.15866,1.12701,-1.00888,0.325653,6.74648,52.8984,34.1086
-3.8834,0.244209,7.27837,1.11744,-1.02059,0.32246,6.74648,52.8984,34.1086
-3.87382,0.134075,7.42681,1.11318,-1.0323,0.311818,6.74648,52.8984,34.1086
-3.91691,0.306458,7.36456,1.10892,-1.05252,0.306497,6.74648,52.8984,34.1086
-3.91213,0.220267,7.55131,1.10147,-1.06635,0.303304,6.74648,52.8984,34.1086
-3.83551,0.349553,7.41724,1.09296,-1.07912,0.301175,6.74648,52.8984,34.1086
-3.86903,0.368707,7.53695,1.08444,-1.09189,0.293726,6.74648,52.8984,34.1086
-3.80678,0.392649,7.58962,1.07806,-1.10892,0.284148,6.74648,52.8984,34.1086
-3.86903,0.387861,7.51779,1.06422,-1.1185,0.284148,6.74648,52.8984,34.1086
-3.8403,0.464475,7.56568,1.05465,-1.13021,0.282019,6.74648,52.8984,34.1086
-3.79242,0.488417,7.57047,1.05358,-1.13978,0.272441,6.74648,52.8984,34.1086
-3.77326,0.56982,7.73327,1.05358,-1.14936,0.271377,6.74648,52.8984,34.1086
-3.85466,0.617704,7.91523,1.03868,-1.16213,0.266056,6.74648,52.8984,34.1086
-3.82593,0.737414,7.92002,1.03017,-1.17278,0.262863,6.74648,52.8984,34.1086
-3.75411,0.665588,7.92002,1.02698,-1.18129,0.257542,6.74648,52.8984,34.1086
-3.71101,0.699107,7.96311,1.01846,-1.18874,0.253285,6.74648,52.8984,34.1086
-3.68228,0.675165,7.92481,1.01101,-1.20257,0.249028,6.74648,52.8984,34.1086
-3.64876,0.775721,7.95354,0.999307,-1.21534,0.243707,6.74648,52.8984,34.1086
-3.56736,0.746991,8.02058,0.992921,-1.22492,0.240515,6.74648,52.8984,34.1086
-3.56257,0.790087,8.05888,0.9876,-1.23024,0.236258,6.74648,52.8984,34.1086
-3.56736,0.790087,8.11634,0.976958,-1.23769,0.233065,6.74648,52.8984,34.1086
-3.49075,0.775721,8.21211,0.96738,-1.24727,0.229872,6.74648,52.8984,34.1086
-3.43807,0.828394,8.16902,0.95993,-1.24834,0.224551,6.74648,52.8984,34.1086
-3.5099,0.837971,8.28873,0.950352,-1.26004,0.223487,6.74648,52.8984,34.1086
-3.41413,0.804452,8.19775,0.938646,-1.2643,0.21923,6.74648,52.8984,34.1086
-3.38061,0.847547,8.16902,0.93226,-1.26856,0.209652,6.74648,52.8984,34.1086
-3.3854,0.833182,8.36055,0.924811,-1.27707,0.202203,6.74648,52.8984,34.1086
-3.35188,0.90022,8.16902,0.908848,-1.28345,0.19156,6.74648,52.8984,34.1086
-3.2226,0.866701,8.21211,0.900334,-1.28665,0.19156,6.74648,52.8984,34.1086
-3.18429,0.876278,8.30788,0.887563,-1.2909,0.187303,6.74648,52.8984,34.1086
-3.16035,0.861913,8.1738,0.875857,-1.29942,0.176661,6.74648,52.8984,34.1086
-3.12204,0.924162,8.36534,0.866279,-1.30261,0.173469,6.74648,52.8984,34.1086
-3.07415,0.866701,8.26,0.851379,-1.30261,0.172404,6.74648,52.8984,34.1086
-3.11725,0.919373,8.48984,0.844994,-1.30793,0.162826,6.74648,52.8984,34.1086
-3.07894,0.833182,8.38928,0.834352,-1.31219,0.152184,6.74648,52.8984,34.1086
-2.87783,0.885855,8.44195,0.819453,-1.31325,0.147927,6.74648,52.8984,34.1086
-2.90656,0.890643,8.44674,0.805618,-1.3207,0.139413,6.74648,52.8984,34.1086
-2.98318,0.885855,8.31267,0.789654,-1.32389,0.1309,6.74648,52.8984,34.1086
-2.79164,0.943315,8.36534,0.773691,-1.32496,0.129835,6.74648,52.8984,34.1086
-2.82037,0.933739,8.32703,0.759856,-1.32815,0.117065,6.74648,52.8984,34.1086
-2.84431,0.909797,8.39407,0.751342,-1.32709,0.106422,6.74648,52.8984,34.1086
-2.76291,0.991199,8.39407,0.732186,-1.32815,0.0989729,6.74648,52.8984,34.1086
-2.75812,0.952892,8.2983,0.711966,-1.33241,0.0925875,6.74648,52.8984,34.1086
-2.71024,1.00556,8.47547,0.691746,-1.33134,0.0872664,6.74648,52.8984,34.1086
-2.71024,0.972046,8.48984,0.675782,-1.32922,0.0819453,6.74648,52.8984,34.1086
-2.72939,1.00078,8.52815,0.669397,-1.32602,0.0734315,6.74648,52.8984,34.1086
-2.74376,1.03908,8.52336,0.657691,-1.32815,0.0659819,6.74648,52.8984,34.1086
-2.73418,1.0343,8.38928,0.63747,-1.32709,0.0649177,6.74648,52.8984,34.1086
-2.65756,0.957681,8.33182,0.622571,-1.32496,0.0510828,6.74648,52.8984,34.1086
-2.70545,1.13964,8.3414,0.607672,-1.32815,0.0457616,6.74648,52.8984,34.1086
-2.70545,1.14922,8.3414,0.590644,-1.32496,0.0415047,6.74648,52.8984,34.1086
-2.71502,1.17795,8.51857,0.575745,-1.32389,0.032991,6.74648,52.8984,34.1086
-2.60489,1.18274,8.40365,0.557654,-1.31964,0.0234129,6.74648,52.8984,34.1086
-2.65756,1.23062,8.48026,0.544883,-1.31538,0.0180918,6.74648,52.8984,34.1086
-2.6432,1.17316,8.4659,0.531048,-1.31751,0.0127707,6.74648,52.8984,34.1086
-2.72939,1.22583,8.53772,0.519341,-1.31112,0.00957802,6.74648,52.8984,34.1086
-2.66235,1.16358,8.37013,0.504442,-1.30687,0.00319267,6.74648,52.8984,34.1086
-2.68151,1.28808,8.47547,0.492736,-1.3058,-0.0042569,6.74648,52.8984,34.1086
-2.72939,1.35033,8.49942,0.486351,-1.30261,-0.0127707,6.74648,52.8984,34.1086
-2.71024,1.28329,8.55209,0.475708,-1.29835,-0.0223487,6.74648,52.8984,34.1086
-2.68151,1.30245,8.60955,0.461873,-1.29835,-0.0319267,6.74648,52.8984,34.1086
-2.68629,1.31681,8.5473,0.449103,-1.29516,-0.0361836,6.74648,52.8984,34.1086
-2.65756,1.15401,8.53772,0.441653,-1.28878,-0.042569,6.74648,52.8984,34.1086
-2.65756,1.19231,8.66701,0.434204,-1.28558,-0.0553397,6.74648,52.8984,34.1086
-2.71024,1.23062,8.42759,0.420369,-1.27707,-0.0659819,6.74648,52.8984,34.1086
-2.55222,1.18752,8.57603,0.411855,-1.276,-0.0744957,6.74648,52.8984,34.1086
-2.5187,1.14922,8.5473,0.404405,-1.27388,-0.0840737,6.74648,52.8984,34.1086
-2.52349,1.17795,8.56645,0.401213,-1.26856,-0.0968444,6.74648,52.8984,34.1086
-2.47082,1.2402,8.55688,0.399084,-1.26323,-0.107487,6.74648,52.8984,34.1086
-2.41336,1.2402,8.69574,0.393763,-1.25791,-0.121322,6.74648,52.8984,34.1086
-2.38462,1.09176,8.59518,0.387378,-1.25472,-0.134092,6.74648,52.8984,34.1086
-2.36068,1.14443,8.88249,0.382057,-1.25578,-0.139413,6.74648,52.8984,34.1086
-2.3942,1.12527,8.66222,0.373543,-1.24408,-0.156441,6.74648,52.8984,34.1086
-2.2697,1.13964,8.81066,0.368222,-1.23663,-0.170276,6.74648,52.8984,34.1086
-2.28886,1.04387,8.64786,0.363965,-1.22918,-0.177725,6.74648,52.8984,34.1086
-2.20267,1.13485,8.81066,0.363965,-1.22811,-0.189432,6.74648,52.8984,34.1086
-2.14999,1.14922,8.69095,0.356515,-1.22492,-0.204331,6.74648,52.8984,34.1086
-2.14999,1.00078,8.71011,0.35013,-1.21534,-0.21923,6.74648,52.8984,34.1086
-2.09253,1.09654,8.78672,0.348001,-1.20577,-0.233065,6.74648,52.8984,34.1086
-2.05422,1.03908,8.84418,0.340552,-1.2047,-0.241579,6.74648,52.8984,34.1086
-2.01113,1.00078,8.7963,0.339488,-1.19832,-0.25435,6.74648,52.8984,34.1086
-1.95846,0.972046,8.6718,0.335231,-1.1898,-0.26712,6.74648,52.8984,34.1086
-1.83875,0.905008,8.84897,0.326717,-1.17703,-0.285212,6.74648,52.8984,34.1086
-1.7765,0.933739,8.65265,0.324588,-1.17171,-0.295854,6.74648,52.8984,34.1086
-1.68073,1.01514,8.89207,0.319267,-1.16852,-0.304368,6.74648,52.8984,34.1086
-1.59933,0.976834,8.74841,0.307561,-1.16107,-0.323524,6.74648,52.8984,34.1086
-1.49398,0.967257,8.51378,0.304368,-1.15149,-0.334166,6.74648,52.8984,34.1086
-1.47962,1.05824,8.52815,0.301175,-1.14298,-0.34268,6.74648,52.8984,34.1086
-1.44131,1.01993,8.64786,0.288405,-1.1334,-0.357579,6.74648,52.8984,34.1086
-1.38385,1.09176,8.56645,0.276698,-1.12063,-0.366093,6.74648,52.8984,34.1086
-1.38385,1.06781,8.59518,0.275634,-1.11637,-0.382057,6.74648,52.8984,34.1086
-1.31681,1.16358,8.51857,0.266056,-1.10254,-0.394827,6.74648,52.8984,34.1086
-1.30245,1.12049,8.53772,0.260735,-1.09722,-0.405469,6.74648,52.8984,34.1086
-1.20189,1.09176,8.61434,0.258606,-1.0887,-0.410791,6.74648,52.8984,34.1086
-1.12527,1.16358,8.5904,0.251157,-1.07912,-0.422497,6.74648,52.8984,34.1086
-1.13964,1.17795,8.5904,0.245836,-1.07167,-0.432075,6.74648,52.8984,34.1086
-1.20189,1.14443,8.43717,0.235194,-1.0621,-0.440589,6.74648,52.8984,34.1086
-1.01993,1.23062,8.63828,0.233065,-1.0589,-0.449103,6.74648,52.8984,34.1086
-1.06781,1.30723,8.49463,0.228808,-1.05145,-0.455488,6.74648,52.8984,34.1086
-1.0726,1.29287,8.51378,0.221359,-1.04188,-0.461873,6.74648,52.8984,34.1086
-0.981623,1.43652,8.71968,0.213909,-1.03549,-0.468259,6.74648,52.8984,34.1086
-1.0726,1.27372,8.76278,0.208588,-1.03017,-0.477837,6.74648,52.8984,34.1086
-1.01993,1.35512,8.93995,0.205395,-1.02485,-0.486351,6.74648,52.8984,34.1086
-1.10133,1.29287,8.86333,0.205395,-1.0174,-0.490607,6.74648,52.8984,34.1086
-1.01993,1.3216,8.82503,0.205395,-1.00888,-0.494864,6.74648,52.8984,34.1086
-1.05824,1.36469,8.93995,0.201138,-1.00144,-0.505507,6.74648,52.8984,34.1086
-1.1157,1.31202,8.94474,0.194753,-1.00037,-0.515085,6.74648,52.8984,34.1086
-1.12527,1.30723,8.96868,0.195817,-1.0025,-0.520406,6.74648,52.8984,34.1086
-1.0726,1.27372,9.19852,0.194753,-0.999307,-0.531048,6.74648,52.8984,34.1086
-1.13964,1.20668,9.20331,0.188368,-0.990793,-0.545947,6.74648,52.8984,34.1086
-1.11091,1.16837,9.25119,0.189432,-0.979086,-0.553397,6.74648,52.8984,34.1086
-1.07739,1.18752,9.26077,0.187303,-0.981215,-0.556589,6.74648,52.8984,34.1086
-1.16358,1.21147,9.414,0.188368,-0.982279,-0.562975,6.74648,52.8984,34.1086
-1.07739,1.26893,9.46188,0.190496,-0.980151,-0.577874,6.74648,52.8984,34.1086
-1.16358,1.09654,9.48583,0.189432,-0.975894,-0.583195,6.74648,52.8984,34.1086
-1.22583,1.17795,9.57681,0.186239,-0.974829,-0.58958,6.74648,52.8984,34.1086
-1.29287,1.22104,9.663,0.185175,-0.968444,-0.605544,6.74648,52.8984,34.1086
-1.24498,1.17316,9.62948,0.188368,-0.963123,-0.612993,6.74648,52.8984,34.1086
-1.30245,1.1971,9.80186,0.179854,-0.964187,-0.620443,6.74648,52.8984,34.1086
-1.35033,1.17795,9.79707,0.183047,-0.960995,-0.627892,6.74648,52.8984,34.1086
-1.34554,1.23062,9.8689,0.184111,-0.955673,-0.642791,6.74648,52.8984,34.1086
-1.37906,1.20668,9.75877,0.179854,-0.954609,-0.658755,6.74648,52.8984,34.1086
-1.37427,1.13964,9.79707,0.172404,-0.952481,-0.658755,6.74648,52.8984,34.1086
-1.41258,1.17795,9.93115,0.174533,-0.951416,-0.673654,6.74648,52.8984,34.1086
-1.39821,1.20668,9.84975,0.174533,-0.946095,-0.68536,6.74648,52.8984,34.1086
-1.36948,1.22583,9.95988,0.175597,-0.940774,-0.693874,6.74648,52.8984,34.1086
-1.51792,1.2402,9.87369,0.167083,-0.940774,-0.707709,6.74648,52.8984,34.1086
-1.45089,1.24498,9.97903,0.164955,-0.934389,-0.716223,6.74648,52.8984,34.1086
-1.51792,1.33118,10.07,0.159634,-0.928004,-0.727929,6.74648,52.8984,34.1086
-1.52271,1.26893,9.87369,0.15112,-0.926939,-0.741764,6.74648,52.8984,34.1086
-1.59454,1.34554,9.88805,0.147927,-0.924811,-0.751342,6.74648,52.8984,34.1086
-1.66636,1.48441,9.9934,0.136221,-0.920554,-0.758792,6.74648,52.8984,34.1086
-1.60412,1.39343,9.95509,0.125578,-0.917361,-0.772627,6.74648,52.8984,34.1086
-1.58496,1.34075,9.87369,0.128771,-0.920554,-0.779012,6.74648,52.8984,34.1086
-1.52271,1.49877,9.75398,0.119193,-0.915233,-0.786462,6.74648,52.8984,34.1086
-1.49398,1.41737,9.89763,0.10323,-0.914169,-0.798168,6.74648,52.8984,34.1086
-1.56102,1.47962,9.84975,0.0936517,-0.91204,-0.805618,6.74648,52.8984,34.1086
-1.48919,1.5706,9.7444,0.0862022,-0.907783,-0.813067,6.74648,52.8984,34.1086
-1.47483,1.58496,9.84496,0.0734315,-0.909912,-0.821581,6.74648,52.8984,34.1086
-1.50356,1.5706,9.76355,0.0595966,-0.909912,-0.830095,6.74648,52.8984,34.1086
-1.43173,1.52271,9.75398,0.0478901,-0.913104,-0.844994,6.74648,52.8984,34.1086
-1.33596,1.56581,9.68215,0.0361836,-0.913104,-0.851379,6.74648,52.8984,34.1086
-1.35991,1.5706,9.73961,0.019156,-0.914169,-0.86415,6.74648,52.8984,34.1086
-1.33596,1.67115,9.69652,0.00106422,-0.91949,-0.873728,6.74648,52.8984,34.1086
-1.30245,1.68073,9.63906,-0.0148991,-0.925875,-0.873728,6.74648,52.8984,34.1086
-1.34554,1.81002,9.64863,-0.0255414,-0.929068,-0.886499,-11.7176,41.1035,34.4531
-1.37906,1.7334,9.71088,-0.032991,-0.930132,-0.888627,-11.7176,41.1035,34.4531
-1.33596,1.81002,9.62469,-0.0446974,-0.934389,-0.896077,-11.7176,41.1035,34.4531
-1.36948,1.76692,9.72046,-0.0649177,-0.93971,-0.902462,-11.7176,41.1035,34.4531
-1.42694,1.83396,9.60554,-0.0776884,-0.945031,-0.909912,-11.7176,41.1035,34.4531
-1.47004,1.87705,9.63906,-0.0893948,-0.954609,-0.916297,-11.7176,41.1035,34.4531
-1.54665,1.9393,9.62469,-0.100037,-0.96738,-0.91949,-11.7176,41.1035,34.4531
-1.5706,1.75256,9.80186,-0.107487,-0.979086,-0.91949,-11.7176,41.1035,34.4531
-1.58496,1.80044,9.7875,-0.114936,-0.9876,-0.91949,-11.7176,41.1035,34.4531
-1.62327,1.85311,9.77313,-0.133028,-0.998242,-0.923747,-11.7176,41.1035,34.4531
-1.63285,1.76213,9.99819,-0.138349,-1.00888,-0.929068,-11.7176,41.1035,34.4531
-1.59933,1.7765,9.92636,-0.144735,-1.02591,-0.926939,-11.7176,41.1035,34.4531
-1.71425,1.7334,10.0365,-0.146863,-1.04507,-0.929068,-11.7176,41.1035,34.4531
-1.64242,1.62327,9.95988,-0.156441,-1.05465,-0.931196,-11.7176,41.1035,34.4531
-1.69988,1.58017,9.98861,-0.163891,-1.07274,-0.928004,-11.7176,41.1035,34.4531
-1.74298,1.59933,10.0509,-0.166019,-1.0887,-0.928004,-11.7176,41.1035,34.4531
-1.82438,1.45567,10.0078,-0.167083,-1.10466,-0.928004,-11.7176,41.1035,34.4531
-1.7334,1.44131,10.1323,-0.172404,-1.12489,-0.931196,-11.7176,41.1035,34.4531
-1.69988,1.36948,10.2376,-0.172404,-1.14085,-0.933325,-11.7176,41.1035,34.4531
-1.71425,1.33596,10.1658,-0.172404,-1.16107,-0.930132,-11.7176,41.1035,34.4531
-1.74298,1.39821,10.1035,-0.176661,-1.17597,-0.928004,-11.7176,41.1035,34.4531
-1.63763,1.38864,10.3238,-0.179854,-1.18874,-0.923747,-11.7176,41.1035,34.4531
-1.75734,1.26893,10.3286,-0.179854,-1.21002,-0.926939,-11.7176,41.1035,34.4531
-1.78607,1.32639,10.2759,-0.183047,-1.22811,-0.930132,-11.7176,41.1035,34.4531
-1.80523,1.31202,10.2999,-0.180918,-1.24301,-0.925875,-11.7176,41.1035,34.4531
-1.73819,1.30245,10.4387,-0.175597,-1.25791,-0.914169,-11.7176,41.1035,34.4531
-1.70946,1.25935,10.319,-0.172404,-1.26749,-0.918426,-11.7176,41.1035,34.4531
-1.62806,1.17316,10.4483,-0.172404,-1.28665,-0.925875,-11.7176,41.1035,34.4531
-1.58975,1.19231,10.4722,-0.168147,-1.30367,-0.920554,-11.7176,41.1035,34.4531
-1.50835,1.27372,10.3908,-0.164955,-1.31325,-0.921618,-11.7176,41.1035,34.4531
-1.43652,1.24498,10.6398,-0.163891,-1.32389,-0.924811,-11.7176,41.1035,34.4531
-1.54187,1.20189,10.6015,-0.159634,-1.33454,-0.924811,-11.7176,41.1035,34.4531
-1.33118,1.23541,10.6638,-0.160698,-1.34305,-0.923747,-11.7176,41.1035,34.4531
-1.30245,1.20189,10.6781,-0.154313,-1.35369,-0.924811,-11.7176,41.1035,34.4531
-1.18752,1.22583,10.7835,-0.145799,-1.35795,-0.930132,-11.7176,41.1035,34.4531
-1.16358,1.16837,10.9223,-0.142606,-1.36114,-0.929068,-11.7176,41.1035,34.4531
-1.19231,1.35512,10.8697,-0.142606,-1.36753,-0.935453,-11.7176,41.1035,34.4531
-1.09176,1.20189,10.9319,-0.136221,-1.36753,-0.937582,-11.7176,41.1035,34.4531
-1.02951,1.23541,10.7931,-0.133028,-1.37711,-0.94716,-11.7176,41.1035,34.4531
-1.03908,1.20668,10.9128,-0.129835,-1.37285,-0.951416,-11.7176,41.1035,34.4531
-0.842759,1.22104,11.0133,-0.122386,-1.37391,-0.956738,-11.7176,41.1035,34.4531
-0.775721,1.21147,11.1713,-0.117065,-1.37711,-0.956738,-11.7176,41.1035,34.4531
-0.770933,1.22583,11.0564,-0.112808,-1.37604,-0.962059,-11.7176,41.1035,34.4531
-0.727837,1.30245,11.2288,-0.106422,-1.36966,-0.971637,-11.7176,41.1035,34.4531
-0.565032,1.25456,11.2719,-0.105358,-1.37072,-0.982279,-11.7176,41.1035,34.4531
-0.612916,1.24977,11.3006,-0.108551,-1.36327,-0.984407,-11.7176,41.1035,34.4531
-0.512359,1.25935,11.3629,-0.100037,-1.36008,-0.992921,-11.7176,41.1035,34.4531
-0.521936,1.36948,11.4299,-0.0936517,-1.3654,-0.998242,-11.7176,41.1035,34.4531
-0.497994,1.28329,11.3629,-0.0872664,-1.35901,-1.00569,-11.7176,41.1035,34.4531
-0.354342,1.26414,11.4491,-0.0851379,-1.35156,-1.01314,-11.7176,41.1035,34.4531
-0.435745,1.34075,11.382,-0.0862022,-1.35263,-1.01846,-11.7176,41.1035,34.4531
-0.272939,1.25456,11.5017,-0.080881,-1.3505,-1.02591,-11.7176,41.1035,34.4531
-0.335188,1.34075,11.5065,-0.0798168,-1.3505,-1.03123,-11.7176,41.1035,34.4531
-0.344765,1.30245,11.4299,-0.0766241,-1.33986,-1.03549,-11.7176,41.1035,34.4531
-0.177171,1.37906,11.5017,-0.071303,-1.33241,-1.03975,-11.7176,41.1035,34.4531
-0.191536,1.43652,11.4874,-0.0744957,-1.33028,-1.04081,-11.7176,41.1035,34.4531
-0.191536,1.42216,11.6215,-0.0755599,-1.32709,-1.04188,-11.7176,41.1035,34.4531
-0.11971,1.4461,11.6215,-0.0744957,-1.31645,-1.04933,-11.7176,41.1035,34.4531
-0.0670376,1.51792,11.7029,-0.0734315,-1.309,-1.05997,-11.7176,41.1035,34.4531
-0.0430956,1.60412,11.5592,-0.0819453,-1.30367,-1.06422,-11.7176,41.1035,34.4531
0,1.54665,11.8082,-0.0840737,-1.29729,-1.07167,-11.7176,41.1035,34.4531
-0.0430956,1.54665,11.7172,-0.0883306,-1.29516,-1.07167,-11.7176,41.1035,34.4531
-0.100556,1.6089,11.6598,-0.0915233,-1.29197,-1.07167,-11.7176,41.1035,34.4531
-0.124498,1.66158,11.7603,-0.10323,-1.28133,-1.08125,-11.7176,41.1035,34.4531
-0.0383072,1.62806,11.6885,-0.107487,-1.26962,-1.08338,-11.7176,41.1035,34.4531
0.105345,1.65679,11.5544,-0.116,-1.26536,-1.08551,-11.7176,41.1035,34.4531
0.0670376,1.69988,11.6071,-0.12345,-1.25472,-1.09296,-11.7176,41.1035,34.4531
0.0622492,1.72861,11.722,-0.136221,-1.24408,-1.09509,-11.7176,41.1035,34.4531
0.0574608,1.75734,11.7507,-0.145799,-1.23663,-1.09722,-11.7176,41.1035,34.4531
0.047884,1.75734,11.6358,-0.154313,-1.22599,-1.10254,-11.7176,41.1035,34.4531
-0.00957681,1.72861,11.7555,-0.169212,-1.21322,-1.10041,-11.7176,41.1035,34.4531
0.0143652,1.74777,11.655,-0.183047,-1.20364,-1.10573,-11.7176,41.1035,34.4531
0.0383072,1.76692,11.6837,-0.197946,-1.19406,-1.11211,-11.7176,41.1035,34.4531
0.071826,1.81959,11.8274,-0.205395,-1.18555,-1.11318,-11.7176,41.1035,34.4531
0.0191536,1.83396,11.722,-0.211781,-1.1749,-1.11744,-11.7176,41.1035,34.4531
0.143652,1.92015,11.7938,-0.224551,-1.16745,-1.12276,-11.7176,41.1035,34.4531
0.172383,1.87227,11.8752,-0.237322,-1.15362,-1.12489,-11.7176,41.1035,34.4531
0.253785,1.84832,11.813,-0.250093,-1.14511,-1.12914,-11.7176,41.1035,34.4531
0.320823,1.89142,11.7986,-0.261799,-1.13127,-1.13446,-11.7176,41.1035,34.4531
0.373495,1.84832,11.7076,-0.27457,-1.1185,-1.13978,-11.7176,41.1035,34.4531
0.435745,2.00155,11.7986,-0.280955,-1.10786,-1.14404,-11.7176,41.1035,34.4531
0.454898,1.8579,11.8178,-0.295854,-1.09828,-1.15043,-11.7176,41.1035,34.4531
0.42138,1.86269,11.9614,-0.301175,-1.09083,-1.15255,-11.7176,41.1035,34.4531
0.526724,1.82438,11.9135,-0.317139,-1.08019,-1.16,-11.7176,41.1035,34.4531
0.454898,1.901,11.8705,-0.327781,-1.07061,-1.16852,-11.7176,41.1035,34.4531
0.579397,1.68073,12.1147,-0.333102,-1.05358,-1.17278,-11.7176,41.1035,34.4531
0.579397,1.77171,12.0764,-0.336295,-1.04507,-1.17597,-11.7176,41.1035,34.4531
0.713472,1.68552,12.0237,-0.344809,-1.03336,-1.18448,-11.7176,41.1035,34.4531
0.622492,1.69988,12.0189,-0.351194,-1.02485,-1.19087,-11.7176,41.1035,34.4531
0.713472,1.69509,12.0428,-0.357579,-1.01421,-1.19725,-11.7176,41.1035,34.4531
0.790087,1.59933,12.0668,-0.365029,-0.993985,-1.2047,-9.94219,41.1035,34.4531
0.699107,1.47004,12.1147,-0.367157,-0.9876,-1.20896,-9.94219,36.8145,32.0414
0.914585,1.36948,11.9662,-0.366093,-0.979086,-1.21428,-9.94219,36.8145,32.0414
0.574608,1.01993,12.1147,-0.3629,-0.969508,-1.21854,-9.94219,36.8145,32.0414
0.603339,1.36469,12.3397,-0.366093,-0.956738,-1.23237,-9.94219,36.8145,32.0414
0.967257,1.4461,12.3924,-0.372478,-0.94716,-1.23344,-9.94219,36.8145,32.0414
0.871489,1.4461,12.4451,-0.380992,-0.93971,-1.2345,-9.94219,36.8145,32.0414
0.823605,1.26893,12.5456,-0.392699,-0.926939,-1.23663,-9.94219,36.8145,32.0414
0.68953,1.20668,12.1482,-0.39057,-0.914169,-1.23876,-9.94219,36.8145,32.0414
0.766145,1.20189,12.2487,-0.375671,-0.909912,-1.23982,-9.94219,36.8145,32.0414
0.708684,1.31202,12.4068,-0.369286,-0.905655,-1.23982,-9.94219,36.8145,32.0414
0.981623,1.27372,12.5648,-0.3629,-0.896077,-1.24727,-9.94219,36.8145,32.0414
0.833182,1.10133,12.4163,-0.366093,-0.887563,-1.25046,-9.94219,36.8145,32.0414
0.818817,1.10612,12.22,-0.365029,-0.876921,-1.25366,-9.94219,36.8145,32.0414
0.78051,1.18274,12.3972,-0.358644,-0.873728,-1.25578,-9.94219,36.8145,32.0414
0.876278,1.39343,12.5408,-0.346937,-0.875857,-1.25578,-9.94219,36.8145,32.0414
0.909797,1.31681,12.536,-0.352258,-0.863086,-1.25472,-9.94219,36.8145,32.0414
1.01035,1.17795,12.5696,-0.358644,-0.852444,-1.25366,-9.94219,36.8145,32.0414
0.962469,1.0726,12.5743,-0.354387,-0.840737,-1.25366,-9.94219,36.8145,32.0414
0.837971,1.13964,12.5935,-0.34268,-0.833288,-1.25366,-9.94219,36.8145,32.0414
0.866701,1.01514,12.6462,-0.333102,-0.83648,-1.25259,-9.94219,36.8145,32.0414
1.01993,0.986411,12.6031,-0.326717,-0.835416,-1.25791,-9.94219,36.8145,32.0414
1.04387,1.08218,12.5408,-0.321396,-0.825838,-1.25366,-9.94219,36.8145,32.0414
0.92895,1.05824,12.6988,-0.318203,-0.81626,-1.2494,-9.94219,36.8145,32.0414
0.847547,1.00556,12.6462,-0.31501,-0.807746,-1.25153,-9.94219,36.8145,32.0414
0.857124,1.04387,12.627,-0.311818,-0.802425,-1.25472,-9.94219,36.8145,32.0414
0.847547,1.11091,12.5504,-0.306497,-0.79604,-1.25046,-9.94219,36.8145,32.0414
1.07739,1.03908,12.6845,-0.300111,-0.790719,-1.24301,-9.94219,36.8145,32.0414
1.00078,1.19231,12.7372,-0.305432,-0.783269,-1.24514,-9.94219,36.8145,32.0414
1.01514,1.00078,12.6174,-0.310753,-0.776884,-1.24514,-9.94219,36.8145,32.0414
0.952892,1.00556,12.469,-0.307561,-0.76092,-1.24301,-9.94219,36.8145,32.0414
1.01514,0.92895,12.536,-0.306497,-0.755599,-1.24195,-9.94219,36.8145,32.0414
1.09654,0.924162,12.6845,-0.303304,-0.752407,-1.24195,-9.94219,36.8145,32.0414
1.16358,1.0343,12.5839,-0.304368,-0.741764,-1.23769,-9.94219,36.8145,32.0414
1.26893,1.0343,12.5839,-0.304368,-0.728994,-1.23876,-9.94219,36.8145,32.0414
1.23541,1.08697,12.651,-0.307561,-0.718351,-1.24621,-9.94219,36.8145,32.0414
1.25456,1.05824,12.7324,-0.313946,-0.702388,-1.24301,-9.94219,36.8145,32.0414
1.16837,1.02951,12.6174,-0.32246,-0.698131,-1.23876,-9.94219,36.8145,32.0414
1.22104,1.11091,12.627,-0.330974,-0.689617,-1.23876,-9.94219,36.8145,32.0414
1.17795,1.13485,12.6031,-0.327781,-0.67259,-1.24089,-9.94219,36.8145,32.0414
1.31202,1.12527,12.6941,-0.334166,-0.66514,-1.23344,-9.94219,36.8145,32.0414
1.31202,0.995988,12.8329,-0.335231,-0.656626,-1.23663,-9.94219,36.8145,32.0414
1.32639,1.08697,12.8042,-0.337359,-0.641727,-1.24514,-9.94219,36.8145,32.0414
1.30245,1.0343,12.8233,-0.348001,-0.635342,-1.24408,-9.94219,36.8145,32.0414
1.33596,1.1157,12.7802,-0.354387,-0.628957,-1.24834,-9.94219,36.8145,32.0414
1.34075,1.1157,12.8617,-0.35013,-0.618314,-1.25046,-9.94219,36.8145,32.0414
1.31202,0.991199,12.8569,-0.357579,-0.603415,-1.24408,-9.94219,36.8145,32.0414
1.3216,0.617704,13.1202,-0.365029,-0.601287,-1.24727,-9.94219,36.8145,32.0414
1.16837,0.861913,12.8856,-0.366093,-0.592773,-1.25153,-9.94219,36.8145,32.0414
1.39343,0.833182,13.0388,-0.366093,-0.591709,-1.25259,-9.94219,36.8145,32.0414
1.58496,1.01514,13.0101,-0.37035,-0.578938,-1.26323,-9.94219,36.8145,32.0414
1.42694,0.895431,13.1777,-0.374607,-0.556589,-1.26536,-9.94219,36.8145,32.0414
1.34554,0.799663,13.149,-0.378864,-0.548075,-1.26217,-9.94219,36.8145,32.0414
1.40779,0.924162,12.6749,-0.376735,-0.545947,-1.26217,-9.94219,36.8145,32.0414
1.5275,0.885855,12.8425,-0.3778,-0.544883,-1.2643,-9.94219,36.8145,32.0414
1.51792,1.3216,13.2304,-0.385249,-0.531048,-1.26536,-9.94219,36.8145,32.0414
1.57538,1.08697,13.1585,-0.393763,-0.516149,-1.26962,-9.94219,36.8145,32.0414
1.54665,1.00078,12.7563,-0.399084,-0.502314,-1.26962,-9.94219,36.8145,32.0414
1.57538,0.938527,12.7802,-0.403341,-0.495929,-1.26962,-9.94219,36.8145,32.0414
1.58975,1.00078,12.7994,-0.405469,-0.488479,-1.26962,-9.94219,36.8145,32.0414
1.66636,0.981623,13.0388,-0.408662,-0.478901,-1.26962,-9.94219,36.8145,32.0414
1.72861,0.981623,12.9,-0.410791,-0.462938,-1.27281,-9.94219,36.8145,32.0414
1.72383,1.04387,12.9335,-0.420369,-0.44591,-1.27068,-9.94219,36.8145,32.0414
1.74298,1.01514,12.8425,-0.433139,-0.428882,-1.26749,-9.94219,36.8145,32.0414
1.68073,0.933739,12.8664,-0.433139,-0.420369,-1.26856,-9.94219,36.8145,32.0414
1.67115,0.885855,12.8952,-0.439525,-0.408662,-1.26323,-9.94219,36.8145,32.0414
1.88184,0.837971,12.809,-0.441653,-0.393763,-1.26856,-9.94219,36.8145,32.0414
1.73819,0.866701,12.9478,-0.449103,-0.382057,-1.26962,-9.94219,36.8145,32.0414
1.82438,0.866701,12.8617,-0.460809,-0.366093,-1.26536,-9.94219,36.8145,32.0414
1.83875,0.799663,13.0388,-0.464002,-0.357579,-1.26643,-9.94219,36.8145,32.0414
1.84354,0.857124,12.8808,-0.472516,-0.343744,-1.26749,-9.94219,36.8145,32.0414
1.91536,0.799663,12.9909,-0.474644,-0.327781,-1.26749,-9.94219,36.8145,32.0414
1.84354,0.823605,12.9814,-0.478901,-0.31501,-1.26643,-9.94219,36.8145,32.0414
1.78607,0.842759,12.8138,-0.488479,-0.30224,-1.26856,-9.94219,36.8145,32.0414
1.87227,0.814029,13.0532,-0.498057,-0.288405,-1.2643,-9.94219,36.8145,32.0414
1.8148,0.770933,13.0436,-0.4938,-0.276698,-1.26217,-9.94219,36.8145,32.0414
1.84832,0.756568,12.8186,-0.498057,-0.264992,-1.26643,-9.94219,36.8145,32.0414
1.86269,0.785298,12.9335,-0.506571,-0.253285,-1.2643,-9.94219,36.8145,32.0414
1.84354,0.699107,12.8808,-0.509763,-0.241579,-1.26217,-9.94219,36.8145,32.0414
1.89142,0.603339,12.9,-0.510828,-0.232001,-1.26643,-9.94219,36.8145,32.0414
1.7334,0.732626,12.8664,-0.517213,-0.220294,-1.26856,-9.94219,36.8145,32.0414
1.80044,0.670376,12.9,-0.525727,-0.20646,-1.26856,-9.94219,36.8145,32.0414
1.84832,0.679953,12.8856,-0.527855,-0.194753,-1.27175,-9.94219,36.8145,32.0414
1.85311,0.636858,12.7659,-0.527855,-0.181982,-1.27068,-9.94219,36.8145,32.0414
1.85311,0.517148,12.9909,-0.535305,-0.173469,-1.27388,-9.94219,36.8145,32.0414
1.82438,0.469264,13.0149,-0.538498,-0.162826,-1.26962,-9.94219,36.8145,32.0414
1.82917,0.588974,12.8042,-0.543819,-0.147927,-1.26962,-9.94219,36.8145,32.0414
1.87705,0.536301,13.0053,-0.544883,-0.139413,-1.26749,-9.94219,36.8145,32.0414
1.86748,0.579397,12.8617,-0.554461,-0.127707,-1.27281,-9.94219,36.8145,32.0414
1.90578,0.565032,13.0436,-0.555525,-0.110679,-1.28026,-9.94219,36.8145,32.0414
1.9393,0.588974,12.785,-0.554461,-0.102166,-1.27494,-9.94219,36.8145,32.0414
1.90578,0.45011,12.9431,-0.562975,-0.0830095,-1.27707,-9.94219,36.8145,32.0414
1.96325,0.474052,12.9191,-0.56936,-0.0649177,-1.28239,-9.94219,36.8145,32.0414
1.99676,0.47884,12.8808,-0.574681,-0.0585323,-1.28345,-9.94219,36.8145,32.0414
2.05901,0.416591,13.1394,-0.572553,-0.0436332,-1.28133,-9.94219,36.8145,32.0414
1.99198,0.517148,12.7946,-0.574681,-0.0244772,-1.28452,-9.94219,36.8145,32.0414
2.03507,0.45011,12.8425,-0.587452,-0.0159634,-1.29197,-9.94219,36.8145,32.0414
2.13084,0.440533,12.8233,-0.590644,-0.00106422,-1.29303,-9.94219,36.8145,32.0414
2.10211,0.497994,12.8664,-0.590644,0.0127707,-1.30048,-9.94219,36.8145,32.0414
2.1069,0.521936,12.7228,-0.58958,0.0276698,-1.30048,-9.94219,36.8145,32.0414
2.07338,0.445322,12.8186,-0.594901,0.042569,-1.30048,-9.94219,36.8145,32.0414
2.11647,0.435745,12.8377,-0.599158,0.061725,-1.30367,-9.94219,36.8145,32.0414
2.06859,0.47884,12.8329,-0.607672,0.0798168,-1.30367,-9.94219,36.8145,32.0414
2.12605,0.45011,12.9431,-0.605544,0.0936517,-1.3058,-9.94219,36.8145,32.0414
2.13563,0.363919,12.8521,-0.605544,0.108551,-1.30793,-9.94219,36.8145,32.0414
2.15478,0.430956,12.9047,-0.608736,0.127707,-1.31538,-9.94219,36.8145,32.0414
2.13563,0.483629,12.9191,-0.611929,0.138349,-1.31964,-9.94219,36.8145,32.0414
1.97282,0.469264,12.9335,-0.606608,0.152184,-1.32177,-9.94219,36.8145,32.0414
2.13563,0.440533,12.809,-0.608736,0.166019,-1.32177,-9.94219,36.8145,32.0414
2.26013,0.411803,12.8042,-0.611929,0.184111,-1.31964,-9.94219,36.8145,32.0414
2.17872,0.344765,12.8808,-0.610865,0.197946,-1.32602,-9.94219,36.8145,32.0414
2.2314,0.411803,12.7707,-0.616186,0.211781,-1.33134,-9.94219,36.8145,32.0414
2.22661,0.407014,12.9,-0.621507,0.232001,-1.33241,-9.94219,36.8145,32.0414
2.17394,0.373495,12.9,-0.6247,0.252221,-1.33773,-9.94219,36.8145,32.0414
2.10211,0.320823,12.9335,-0.622571,0.264992,-1.33667,-9.94219,36.8145,32.0414
2.14042,0.287304,12.785,-0.6247,0.27457,-1.34412,-9.94219,36.8145,32.0414
2.1883,0.301669,12.785,-0.626828,0.296919,-1.34731,-9.94219,36.8145,32.0414
2.11169,0.344765,12.7659,-0.6247,0.312882,-1.34518,-9.94219,36.8145,32.0414
2.16915,0.306458,12.7994,-0.626828,0.325653,-1.35156,-9.94219,36.8145,32.0414
2.15478,0.320823,12.7946,-0.632149,0.337359,-1.34944,-9.94219,36.8145,32.0414
2.1883,0.282516,12.7036,-0.636406,0.355451,-1.35689,-9.94219,36.8145,32.0414
2.27449,0.215478,12.5887,-0.638535,0.371414,-1.35689,-9.94219,36.8145,32.0414
2.20745,0.234632,12.5456,-0.641727,0.386313,-1.35901,-9.94219,36.8145,32.0414
2.28886,0.234632,12.6174,-0.652369,0.399084,-1.35795,-9.94219,36.8145,32.0414
2.25055,0.23942,12.4977,-0.660883,0.411855,-1.35901,-9.94219,36.8145,32.0414
2.19788,0.162806,12.5169,-0.66514,0.427818,-1.36114,-9.94219,36.8145,32.0414
2.22661,0.282516,12.4403,-0.674718,0.443782,-1.36434,-9.94219,36.8145,32.0414
2.2697,0.181959,12.3445,-0.683232,0.458681,-1.36008,-9.94219,36.8145,32.0414
2.24097,0.153229,12.3732,-0.687489,0.470387,-1.36114,-9.94219,36.8145,32.0414
2.22182,0.11971,12.3541,-0.693874,0.479965,-1.36008,-9.94219,36.8145,32.0414
2.30322,0.148441,12.22,-0.702388,0.491672,-1.36114,-9.94219,36.8145,32.0414
2.19788,0.0670376,12.1051,-0.715159,0.507635,-1.35689,-9.94219,36.8145,32.0414
2.26491,0.0383072,12.1099,-0.725801,0.518277,-1.36008,-9.94219,36.8145,32.0414
2.33195,0.105345,12.1386,-0.732186,0.528919,-1.36114,-9.94219,36.8145,32.0414
2.32716,0.0383072,12.0716,-0.736443,0.54169,-1.35901,-9.94219,36.8145,32.0414
2.34153,0.0814029,12.0955,-0.750278,0.548075,-1.35689,-9.94219,36.8145,32.0414
2.35111,0.023942,12.1961,-0.755599,0.56191,-1.35369,-9.94219,36.8145,32.0414
2.28407,-0.0383072,11.9519,-0.756663,0.574681,-1.35263,-9.94219,36.8145,32.0414
2.26491,0.00957681,12.0237,-0.76837,0.580002,-1.35156,-9.94219,36.8145,32.0414
2.21224,-0.00957681,11.8752,-0.777948,0.595966,-1.3505,-9.94219,36.8145,32.0414
2.22182,-0.00957681,12.0524,-0.786462,0.606608,-1.34624,-9.94219,36.8145,32.0414
2.22661,-0.0383072,12.0716,-0.789654,0.614057,-1.34731,-9.94219,36.8145,32.0414
2.22661,-0.0383072,11.9423,-0.793911,0.619379,-1.34518,-9.94219,36.8145,32.0414
2.26013,-0.0622492,12.1147,-0.799232,0.626828,-1.34199,-9.94219,36.8145,32.0414
2.33195,-0.0957681,12.129,-0.805618,0.638535,-1.3356,-9.94219,36.8145,32.0414
2.24097,-0.105345,11.8848,-0.805618,0.647048,-1.33134,-9.94219,36.8145,32.0414
2.28886,-0.158017,11.8705,-0.812003,0.657691,-1.33241,-9.94219,36.8145,32.0414
2.36547,-0.196325,11.9471,-0.815196,0.666204,-1.32815,-9.94219,36.8145,32.0414
2.32716,-0.234632,11.9854,-0.812003,0.676847,-1.32815,-9.94219,36.8145,32.0414
2.32238,-0.215478,12.0524,-0.815196,0.683232,-1.33134,-9.94219,36.8145,32.0414
2.34153,-0.296881,11.8992,-0.822645,0.693874,-1.33134,-9.94219,36.8145,32.0414
2.36068,-0.272939,11.971,-0.82371,0.703452,-1.32709,-9.94219,36.8145,32.0414
2.26491,-0.258574,11.9183,-0.822645,0.711966,-1.32389,-9.94219,36.8145,32.0414
2.2697,-0.373495,11.8465,-0.825838,0.723673,-1.32177,-9.94219,36.8145,32.0414
2.37984,-0.387861,11.8657,-0.82371,0.728994,-1.31857,-9.94219,36.8145,32.0414
2.25534,-0.368707,11.9423,-0.82371,0.7407,-1.3207,-9.94219,36.8145,32.0414
2.37505,-0.407014,11.813,-0.827967,0.753471,-1.31857,-9.94219,36.8145,32.0414
2.3128,-0.35913,11.7076,-0.832223,0.766241,-1.31964,-9.94219,36.8145,32.0414
2.41814,-0.402226,11.6837,-0.830095,0.771563,-1.31751,-9.94219,36.8145,32.0414
2.32716,-0.397437,11.7172,-0.830095,0.774755,-1.31325,-9.94219,36.8145,32.0414
2.30801,-0.483629,11.5975,-0.834352,0.786462,-1.31538,-9.94219,36.8145,32.0414
2.27449,-0.483629,11.6981,-0.831159,0.803489,-1.31538,-9.94219,36.8145,32.0414
2.30801,-0.440533,11.5831,-0.835416,0.813067,-1.31538,-9.94219,36.8145,32.0414
2.3942,-0.416591,11.4826,-0.838609,0.817324,-1.31219,-9.94219,36.8145,32.0414
2.39899,-0.502782,11.4682,-0.83648,0.826902,-1.31219,-9.94219,36.8145,32.0414
2.38462,-0.521936,11.4778,-0.839673,0.839673,-1.31219,-9.94219,36.8145,32.0414
2.3128,-0.497994,11.4491,-0.847123,0.849251,-1.31538,-9.94219,36.8145,32.0414
2.23618,-0.517148,11.3198,-0.846058,0.857765,-1.31325,-9.94219,36.8145,32.0414
2.20267,-0.497994,11.3054,-0.842866,0.865214,-1.31432,-9.94219,36.8145,32.0414
2.29843,-0.593762,11.3725,-0.84393,0.870535,-1.31325,-9.94219,36.8145,32.0414
2.11169,-0.675165,11.2911,-0.849251,0.876921,-1.31006,-9.94219,36.8145,32.0414
2.25534,-0.641646,11.3533,-0.853508,0.887563,-1.3058,-9.94219,36.8145,32.0414
2.18351,-0.588974,11.3389,-0.854572,0.89927,-1.30687,-9.94219,36.8145,32.0414
2.1069,-0.56982,11.2575,-0.851379,0.902462,-1.30793,-9.94219,36.8145,32.0414
2.1069,-0.694318,11.1666,-0.851379,0.913104,-1.30474,-9.94219,36.8145,32.0414
2.15478,-0.617704,11.1426,-0.856701,0.931196,-1.30367,-9.94219,36.8145,32.0414
2.09253,-0.684742,11.2384,-0.858829,0.936517,-1.29623,-9.94219,36.8145,32.0414
2.0638,-0.560243,11.0756,-0.856701,0.942903,-1.29623,-9.94219,36.8145,32.0414
2.05422,-0.651223,11.0421,-0.854572,0.946095,-1.30155,-9.94219,36.8145,32.0414
1.97761,-0.536301,11.1187,-0.859893,0.950352,-1.29623,-9.94219,36.8145,32.0414
1.99676,-0.670376,11.133,-0.859893,0.958866,-1.29303,-9.94219,36.8145,32.0414
2.07338,-0.756568,10.9463,-0.860957,0.965251,-1.29197,-9.94219,36.8145,32.0414
2.00155,-0.708684,11.1139,-0.858829,0.970573,-1.28878,-9.94219,36.8145,32.0414
1.9824,-0.732626,11.0804,-0.857765,0.979086,-1.28878,-9.94219,36.8145,32.0414
2.00634,-0.78051,10.8936,-0.860957,0.984407,-1.28984,-9.94219,36.8145,32.0414
1.97761,-0.746991,10.7883,-0.863086,0.991857,-1.28558,-9.94219,36.8145,32.0414
2.03028,-0.727837,10.8697,-0.862022,0.997178,-1.28771,-9.94219,36.8145,32.0414
1.9824,-0.833182,10.8266,-0.862022,0.997178,-1.28452,-9.94219,36.8145,32.0414
1.9393,-0.943315,10.8697,-0.860957,1.0025,-1.2792,-9.94219,36.8145,32.0414
2.03507,-0.861913,10.7643,-0.857765,1.00676,-1.28133,-9.94219,36.8145,32.0414
1.9824,-0.837971,10.7069,-0.862022,1.01314,-1.28026,-9.94219,36.8145,32.0414
2.03507,-0.952892,10.7931,-0.867343,1.01846,-1.27707,-9.94219,36.8145,32.0414
1.95367,-0.981623,10.6159,-0.866279,1.01953,-1.27281,-9.94219,36.8145,32.0414
1.97282,-1.02951,10.5249,-0.863086,1.0291,-1.27068,-9.94219,36.8145,32.0414
1.97761,-0.905008,10.5297,-0.865214,1.03549,-1.26962,-9.94219,36.8145,32.0414
2.00634,-1.0726,10.477,-0.868407,1.04294,-1.27068,-9.94219,36.8145,32.0414
2.03986,-1.02951,10.4818,-0.863086,1.04081,-1.26856,-9.94219,36.8145,32.0414
1.93451,-1.07739,10.4627,-0.862022,1.04826,-1.26643,-9.94219,36.8145,32.0414
1.93451,-1.03908,10.3956,-0.867343,1.05465,-1.26111,-9.94219,36.8145,32.0414
1.98719,-1.01514,10.4914,-0.867343,1.06103,-1.26217,-9.94219,36.8145,32.0414
1.92973,-1.08697,10.3621,-0.863086,1.06635,-1.26111,-9.94219,36.8145,32.0414
2.0638,-1.07739,10.3956,-0.863086,1.07061,-1.25791,-9.94219,36.8145,32.0414
1.97761,-1.1157,10.3956,-0.863086,1.07806,-1.25791,-9.94219,36.8145,32.0414
2.04465,-1.1971,10.2855,-0.863086,1.07912,-1.25259,-9.94219,36.8145,32.0414
1.92494,-1.13964,10.3908,-0.858829,1.08444,-1.2494,-9.94219,36.8145,32.0414
2.09253,-1.20189,10.2711,-0.86415,1.08977,-1.25259,-9.94219,36.8145,32.0414
2.03507,-1.18274,10.2663,-0.859893,1.09083,-1.25366,-9.94219,36.8145,32.0414
2.07817,-1.25935,10.1754,-0.855636,1.09615,-1.24621,-9.94219,36.8145,32.0414
2.05901,-1.25456,10.2903,-0.856701,1.10786,-1.23876,-9.94219,36.8145,32.0414
1.9824,-1.23541,10.2711,-0.855636,1.10999,-1.23663,-9.94219,36.8145,32.0414
2.01113,-1.28808,10.3142,-0.846058,1.11744,-1.23556,-9.94219,36.8145,32.0414
2.03507,-1.20668,10.1993,-0.840737,1.11956,-1.23876,-9.94219,36.8145,32.0414
1.93451,-1.24977,10.1418,-0.842866,1.12276,-1.23556,-9.94219,36.8145,32.0414
1.92494,-1.29766,10.1945,-0.83648,1.13021,-1.23024,-9.94219,36.8145,32.0414
2.01113,-1.31681,10.2711,-0.834352,1.13766,-1.23024,-9.94219,36.8145,32.0414
2.02071,-1.29766,10.1562,-0.834352,1.13978,-1.22705,-9.94219,36.8145,32.0414
2.03507,-1.36469,10.2041,-0.827967,1.14404,-1.22279,-9.94219,36.8145,32.0414
1.98719,-1.2785,10.1466,-0.82371,1.15255,-1.2196,-9.94219,36.8145,32.0414
1.99198,-1.403,10.0796,-0.813067,1.16107,-1.22067,-9.94219,36.8145,32.0414
2.01113,-1.34554,10.1754,-0.810939,1.16639,-1.22173,-9.94219,36.8145,32.0414
2.02549,-1.26893,10.1035,-0.806682,1.16852,-1.21854,-9.94219,36.8145,32.0414
2.00155,-1.38864,10.0221,-0.799232,1.17703,-1.22067,-9.94219,36.8145,32.0414
1.94409,-1.36469,10.0844,-0.798168,1.18661,-1.21641,-9.94219,36.8145,32.0414
2.01113,-1.41737,10.0796,-0.791783,1.18874,-1.21534,-9.94219,36.8145,32.0414
2.03028,-1.33596,9.90721,-0.781141,1.19193,-1.20896,-9.94219,36.8145,32.0414
2.0638,-1.36948,9.98382,-0.777948,1.20364,-1.21322,-9.94219,36.8145,32.0414
2.00634,-1.43173,9.92157,-0.774755,1.21002,-1.21322,-9.94219,36.8145,32.0414
1.93451,-1.403,9.90242,-0.764113,1.21002,-1.21109,-9.94219,36.8145,32.0414
2.00155,-1.51792,9.77313,-0.76092,1.21747,-1.21322,-9.94219,36.8145,32.0414
2.04465,-1.42216,9.97903,-0.759856,1.22599,-1.21428,-9.94219,36.8145,32.0414
1.98719,-1.45567,9.88805,-0.751342,1.23131,-1.21428,-9.94219,36.8145,32.0414
2.00634,-1.50356,9.87848,-0.744957,1.24834,-1.20789,-9.94219,36.8145,32.0414
1.94409,-1.45567,9.83059,-0.741764,1.24834,-1.2047,-9.94219,36.8145,32.0414
2.03507,-1.50356,9.80186,-0.730058,1.25366,-1.21428,-9.94219,36.8145,32.0414
1.94409,-1.45089,9.79707,-0.730058,1.25578,-1.21534,-9.94219,36.8145,32.0414
2.00155,-1.61848,9.71088,-0.73325,1.26536,-1.21428,-9.94219,36.8145,32.0414
2.03986,-1.48441,9.69173,-0.72048,1.27494,-1.21322,-9.94219,36.8145,32.0414
1.96325,-1.56581,9.69173,-0.718351,1.28239,-1.21534,-9.94219,36.8145,32.0414
2.02549,-1.5706,9.63427,-0.718351,1.28878,-1.21641,-9.94219,36.8145,32.0414
2.04465,-1.62327,9.69173,-0.710902,1.30048,-1.21747,-9.94219,36.8145,32.0414
1.88184,-1.5706,9.65821,-0.703452,1.30793,-1.21854,-9.94219,36.8145,32.0414
1.95846,-1.652,9.61511,-0.698131,1.31538,-1.22067,-9.94219,36.8145,32.0414
2.02071,-1.64721,9.52413,-0.694938,1.32177,-1.21854,-9.94219,36.8145,32.0414
2.02549,-1.69988,9.61511,-0.689617,1.32922,-1.22067,-9.94219,36.8145,32.0414
2.03507,-1.7334,9.43315,-0.678975,1.33454,-1.21534,-9.94219,36.8145,32.0414
1.97761,-1.75256,9.57202,-0.673654,1.33667,-1.2196,-9.94219,36.8145,32.0414
2.03507,-1.75734,9.63427,-0.66514,1.34731,-1.22279,-9.94219,36.8145,32.0414
2.04465,-1.82438,9.2895,-0.66514,1.35156,-1.22067,-9.94219,36.8145,32.0414
2.07338,-1.81959,9.54329,-0.661947,1.36008,-1.22067,-9.94219,36.8145,32.0414
1.97282,-1.87705,9.48583,-0.657691,1.36859,-1.22386,-9.94219,36.8145,32.0414
2.00155,-1.81959,9.49062,-0.642791,1.37498,-1.22173,-9.94219,36.8145,32.0414
2.0638,-1.82438,9.44752,-0.636406,1.37817,-1.22067,-9.94219,36.8145,32.0414
2.08774,-1.9824,9.47625,-0.628957,1.38668,-1.2196,-9.94219,36.8145,32.0414
2.03028,-2.02549,9.32781,-0.623635,1.39733,-1.2196,-9.94219,36.8145,32.0414
2.05422,-2.02071,9.50019,-0.612993,1.40371,-1.22173,-9.94219,36.8145,32.0414
2.04465,-2.11169,9.48104,-0.602351,1.40584,-1.22173,-9.94219,36.8145,32.0414
2.02549,-2.02071,9.36133,-0.598094,1.41435,-1.21854,-9.94219,36.8145,32.0414
2.04465,-2.1452,9.414,-0.588516,1.41755,-1.2196,-9.94219,36.8145,32.0414
2.10211,-2.20267,9.50977,-0.57681,1.42925,-1.21854,-9.94219,36.8145,32.0414
1.95846,-2.11647,9.4571,-0.564039,1.4367,-1.21215,-9.94219,36.8145,32.0414
1.96325,-2.1883,9.49062,-0.559782,1.44415,-1.21215,-9.94219,36.8145,32.0414
1.9393,-2.20267,9.5816,-0.548075,1.44841,-1.20896,-9.94219,36.8145,32.0414
1.95846,-2.26013,9.39964,-0.537433,1.46012,-1.21109,-9.94219,36.8145,32.0414
2.00155,-2.19309,9.43794,-0.528919,1.46969,-1.20364,-9.94219,36.8145,32.0414
1.93451,-2.22661,9.50498,-0.516149,1.46863,-1.20257,-9.94219,36.8145,32.0414
1.93451,-2.32716,9.55287,-0.50125,1.47927,-1.20151,-9.94219,36.8145,32.0414
1.99676,-2.29365,9.50977,-0.491672,1.49098,-1.19619,-9.94219,36.8145,32.0414
1.94409,-2.37984,9.46667,-0.489543,1.50162,-1.19193,-9.94219,36.8145,32.0414
1.83396,-2.26013,9.56244,-0.475708,1.51546,-1.1898,-9.94219,36.8145,32.0414
1.92494,-2.2697,9.47625,-0.458681,1.51865,-1.1898,-9.94219,36.8145,32.0414
1.83875,-2.38462,9.5385,-0.448038,1.52503,-1.18129,-9.94219,36.8145,32.0414
1.901,-2.49476,9.50977,-0.443782,1.53993,-1.17278,-9.94219,36.8145,32.0414
1.85311,-2.45645,9.57681,-0.428882,1.54845,-1.16852,1.42031,46.8223,32.3859
1.79086,-2.41336,9.60554,-0.417176,1.5527,-1.1632,1.42031,46.8223,32.3859
1.79565,-2.41814,9.34696,-0.408662,1.56228,-1.16107,1.42031,46.8223,32.3859
1.77171,-2.48039,9.45231,-0.396956,1.57399,-1.15788,1.42031,46.8223,32.3859
1.66158,-2.42772,9.37569,-0.385249,1.58676,-1.14936,1.42031,46.8223,32.3859
1.83875,-2.45166,9.42358,-0.374607,1.58995,-1.14191,1.42031,46.8223,32.3859
1.75734,-2.48039,9.45231,-0.363965,1.60166,-1.13127,1.42031,46.8223,32.3859
1.77171,-2.53785,9.48104,-0.355451,1.61549,-1.12382,1.42031,46.8223,32.3859
1.69031,-2.39899,9.39006,-0.341616,1.6272,-1.12063,1.42031,46.8223,32.3859
1.74298,-2.48997,9.19852,-0.334166,1.63465,-1.11744,1.42031,46.8223,32.3859
1.67115,-2.48039,9.36133,-0.324588,1.64316,-1.11318,1.42031,46.8223,32.3859
1.58017,-2.42772,9.23204,-0.307561,1.65487,-1.10041,1.42031,46.8223,32.3859
1.6089,-2.44687,9.25598,-0.301175,1.66551,-1.10041,1.42031,46.8223,32.3859
1.59933,-2.53785,9.2895,-0.291597,1.67509,-1.09402,1.42031,46.8223,32.3859
1.58975,-2.42772,9.30387,-0.286276,1.6836,-1.0887,1.42031,46.8223,32.3859
1.44131,-2.44687,9.18895,-0.282019,1.68999,-1.08019,1.42031,46.8223,32.3859
1.52271,-2.5187,9.09318,-0.264992,1.70063,-1.06955,1.42031,46.8223,32.3859
1.52271,-2.52349,9.24162,-0.253285,1.71127,-1.06635,1.42031,46.8223,32.3859
1.50835,-2.49476,9.11712,-0.251157,1.71872,-1.05465,1.42031,46.8223,32.3859
1.47004,-2.48039,9.09318,-0.241579,1.73256,-1.05039,1.42031,46.8223,32.3859
1.44131,-2.44687,9.13627,-0.236258,1.73894,-1.044,1.42031,46.8223,32.3859
1.37427,-2.49955,9.0022,-0.22668,1.74426,-1.03975,1.42031,46.8223,32.3859
1.33118,-2.54264,8.9208,-0.217102,1.75278,-1.03123,1.42031,46.8223,32.3859
1.29766,-2.48039,9.16979,-0.213909,1.75384,-1.02272,1.42031,46.8223,32.3859
1.22104,-2.45166,9.00699,-0.207524,1.76129,-1.02272,1.42031,46.8223,32.3859
1.21625,-2.50433,8.82024,-0.203267,1.77193,-1.01527,1.42031,46.8223,32.3859
1.24498,-2.54743,9.01178,-0.193689,1.77832,-1.00463,1.42031,46.8223,32.3859
1.15401,-2.5187,8.9208,-0.190496,1.78151,-0.999307,1.42031,46.8223,32.3859
1.24498,-2.42772,8.71968,-0.19156,1.79003,-0.99505,1.42031,46.8223,32.3859
1.20668,-2.5618,8.90643,-0.180918,1.79003,-0.989729,1.42031,46.8223,32.3859
1.16837,-2.48997,8.76757,-0.168147,1.79109,-0.982279,1.42031,46.8223,32.3859
0.981623,-2.40857,8.78193,-0.162826,1.80173,-0.974829,1.42031,46.8223,32.3859
0.995988,-2.48518,8.84897,-0.161762,1.80386,-0.963123,1.42031,46.8223,32.3859
0.991199,-2.5618,8.74841,-0.15112,1.8028,-0.955673,1.42031,46.8223,32.3859
0.914585,-2.41336,8.86812,-0.141542,1.8028,-0.949288,1.42031,46.8223,32.3859
0.905008,-2.46124,8.74362,-0.139413,1.80599,-0.941839,1.42031,46.8223,32.3859
0.857124,-2.35589,8.60476,-0.137285,1.80599,-0.942903,1.42031,46.8223,32.3859
0.837971,-2.46603,8.60955,-0.128771,1.80705,-0.934389,1.42031,46.8223,32.3859
0.804452,-2.54264,8.61434,-0.117065,1.80492,-0.928004,1.42031,46.8223,32.3859
0.790087,-2.52349,8.5904,-0.111744,1.80812,-0.920554,1.42031,46.8223,32.3859
0.770933,-2.59531,8.49463,-0.106422,1.81131,-0.909912,1.42031,46.8223,32.3859
0.766145,-2.46603,8.41322,-0.101101,1.80386,-0.905655,1.42031,46.8223,32.3859
0.708684,-2.59531,8.37492,-0.094716,1.80386,-0.903526,1.42031,46.8223,32.3859
0.746991,-2.60489,8.50899,-0.0819453,1.8028,-0.895013,1.42031,46.8223,32.3859
0.56982,-2.65756,8.47547,-0.0787526,1.8028,-0.886499,1.42031,46.8223,32.3859
0.732626,-2.67672,8.56167,-0.0681104,1.7996,-0.876921,1.42031,46.8223,32.3859
0.603339,-2.73418,8.48984,-0.0606608,1.79215,-0.872664,1.42031,46.8223,32.3859
0.670376,-2.63841,8.37492,-0.0510828,1.79003,-0.866279,1.42031,46.8223,32.3859
0.670376,-2.68151,8.41801,-0.042569,1.79003,-0.859893,1.42031,46.8223,32.3859
0.723049,-2.68629,8.52336,-0.0383121,1.78577,-0.855636,1.42031,46.8223,32.3859
0.636858,-2.70545,8.44674,-0.0255414,1.78258,-0.851379,1.42031,46.8223,32.3859
0.56982,-2.74854,8.24084,-0.0180918,1.78045,-0.844994,1.42031,46.8223,32.3859
0.526724,-2.81558,8.32224,-0.0117065,1.77725,-0.83648,1.42031,46.8223,32.3859
0.545878,-2.87783,8.22648,0.00532112,1.76768,-0.829031,1.42031,46.8223,32.3859
0.493206,-2.69587,8.20253,0.0127707,1.76129,-0.829031,1.42031,46.8223,32.3859
0.536301,-2.83952,8.33182,0.0148991,1.76023,-0.822645,1.42031,46.8223,32.3859
0.517148,-2.806,8.12113,0.0276698,1.75703,-0.809875,1.42031,46.8223,32.3859
0.579397,-2.7677,8.18338,0.042569,1.75171,-0.806682,1.42031,46.8223,32.3859
0.454898,-2.71981,8.13071,0.0532112,1.74639,-0.802425,1.42031,46.8223,32.3859
0.454898,-2.75812,8.16423,0.0649177,1.7432,-0.792847,1.42031,46.8223,32.3859
0.416591,-2.79164,8.28873,0.0744957,1.73575,-0.783269,1.42031,46.8223,32.3859
0.545878,-2.78206,8.15944,0.0851379,1.72936,-0.779012,1.42031,46.8223,32.3859
0.464475,-2.80122,8.18338,0.0989729,1.72724,-0.773691,1.42031,46.8223,32.3859
0.47884,-2.86347,8.31267,0.106422,1.72085,-0.769434,1.42031,46.8223,32.3859
0.545878,-2.806,8.2983,0.120257,1.72085,-0.758792,1.42031,46.8223,32.3859
0.493206,-2.806,8.2169,0.134092,1.7134,-0.749214,1.42031,46.8223,32.3859
0.536301,-2.83952,8.35576,0.145799,1.70808,-0.738572,1.42031,46.8223,32.3859
0.402226,-2.78206,8.25521,0.153248,1.70595,-0.737507,1.42031,46.8223,32.3859
0.373495,-2.80122,8.12592,0.170276,1.70382,-0.730058,1.42031,46.8223,32.3859
0.306458,-2.806,8.18338,0.180918,1.6985,-0.72048,1.42031,46.8223,32.3859
0.244209,-2.75333,8.11634,0.193689,1.69957,-0.718351,1.42031,46.8223,32.3859
0.325611,-2.78206,8.17859,0.207524,1.69744,-0.710902,1.42031,46.8223,32.3859
0.263362,-2.79164,8.20732,0.214973,1.69212,-0.704516,1.42031,46.8223,32.3859
0.201113,-2.79164,8.14029,0.229872,1.68999,-0.694938,1.42031,46.8223,32.3859
0.205901,-2.78685,8.14029,0.241579,1.69105,-0.690682,1.42031,46.8223,32.3859
0.191536,-2.71502,7.99663,0.252221,1.6868,-0.674718,1.42031,46.8223,32.3859
0.201113,-2.71981,8.19296,0.258606,1.68467,-0.668333,1.42031,46.8223,32.3859
0.129287,-2.73418,8.26957,0.275634,1.68786,-0.66514,1.42031,46.8223,32.3859
0.0909797,-2.78206,8.17859,0.283084,1.68254,-0.654498,1.42031,46.8223,32.3859
0.0622492,-2.67193,8.06846,0.284148,1.67828,-0.647048,1.42031,46.8223,32.3859
0.129287,-2.62405,7.8865,0.299047,1.67828,-0.638535,1.42031,46.8223,32.3859
0.00957681,-2.74854,7.98227,0.311818,1.67615,-0.634278,1.42031,46.8223,32.3859
0.0670376,-2.73897,7.91044,0.323524,1.67509,-0.620443,1.42031,46.8223,32.3859
0.0143652,-2.75333,8.03494,0.330974,1.67402,-0.609801,1.42031,46.8223,32.3859
0.0047884,-2.67672,7.99185,0.340552,1.67083,-0.604479,1.42031,46.8223,32.3859
-0.0909797,-2.71024,7.91523,0.346937,1.66551,-0.594901,1.42031,46.8223,32.3859
-0.148441,-2.66714,7.86256,0.356515,1.66764,-0.584259,1.42031,46.8223,32.3859
-0.105345,-2.80122,7.92481,0.361836,1.66551,-0.575745,1.42031,46.8223,32.3859
-0.201113,-2.73897,7.78594,0.372478,1.66125,-0.56936,1.42031,46.8223,32.3859
-0.253785,-2.62405,7.762,0.3778,1.66019,-0.558718,1.42031,46.8223,32.3859
-0.248997,-2.70545,7.8051,0.386313,1.64955,-0.54169,1.77539,56.4727,31.0078
-0.292093,-2.64799,7.81467,0.402277,1.63784,-0.537433,1.77539,56.4727,31.0078
-0.258574,-2.65756,7.84819,0.403341,1.63891,-0.525727,1.77539,56.4727,31.0078
-0.387861,-2.66714,7.75721,0.410791,1.63891,-0.520406,1.77539,56.4727,31.0078
-0.440533,-2.67193,7.762,0.417176,1.63146,-0.507635,1.77539,56.4727,31.0078
-0.474052,-2.63841,7.74764,0.415047,1.62294,-0.494864,1.77539,56.4727,31.0078
-0.550666,-2.60968,7.68539,0.41824,1.61656,-0.488479,1.77539,56.4727,31.0078
-0.574608,-2.57137,7.58962,0.423561,1.61656,-0.483158,1.77539,56.4727,31.0078
-0.54109,-2.61447,7.53216,0.434204,1.60911,-0.467194,1.77539,56.4727,31.0078
-0.531513,-2.59053,7.39329,0.437396,1.59846,-0.454424,1.77539,56.4727,31.0078
-0.588974,-2.58574,7.53216,0.43846,1.59314,-0.444846,1.77539,56.4727,31.0078
-0.708684,-2.65278,7.53695,0.442717,1.58463,-0.434204,1.77539,56.4727,31.0078
-0.665588,-2.69108,7.40766,0.449103,1.57612,-0.424625,1.77539,56.4727,31.0078
-0.833182,-2.60968,7.47949,0.455488,1.57292,-0.415047,1.77539,56.4727,31.0078
-0.794875,-2.64799,7.37414,0.456552,1.5676,-0.39802,1.77539,56.4727,31.0078
-0.842759,-2.58574,7.37893,0.458681,1.55483,-0.389506,1.77539,56.4727,31.0078
-0.794875,-2.55222,7.42203,0.461873,1.54206,-0.383121,1.77539,56.4727,31.0078
-0.842759,-2.60968,7.27837,0.465066,1.53461,-0.368222,1.77539,56.4727,31.0078
-0.919373,-2.54743,7.33105,0.46613,1.53035,-0.357579,1.77539,56.4727,31.0078
-0.90022,-2.65756,7.2688,0.47358,1.51758,-0.345873,1.77539,56.4727,31.0078
-0.972046,-2.58095,7.25922,0.479965,1.50375,-0.332038,1.77539,56.4727,31.0078
-0.952892,-2.54264,7.07726,0.483158,1.49204,-0.320332,1.77539,56.4727,31.0078
-0.976834,-2.53307,7.10599,0.481029,1.48034,-0.306497,1.77539,56.4727,31.0078
-1.04387,-2.58095,7.11557,0.490607,1.46757,-0.29479,1.77539,56.4727,31.0078
-1.19231,-2.57616,7.04374,0.495929,1.45692,-0.283084,1.77539,56.4727,31.0078
-1.09176,-2.59531,7.08205,0.500185,1.44735,-0.276698,1.77539,56.4727,31.0078
-1.13964,-2.58095,6.8953,0.503378,1.4367,-0.258606,1.77539,56.4727,31.0078
-1.21147,-2.58095,6.8953,0.510828,1.4218,-0.244772,1.77539,56.4727,31.0078
-1.14922,-2.52349,7.05811,0.512956,1.40584,-0.23945,1.77539,56.4727,31.0078
-1.2785,-2.62405,6.90009,0.52147,1.3952,-0.220294,1.77539,56.4727,31.0078
-1.22583,-2.62405,6.90967,0.527855,1.38775,-0.207524,1.77539,56.4727,31.0078
-1.2402,-2.62883,6.99107,0.528919,1.37285,-0.19901,1.77539,56.4727,31.0078
-1.29287,-2.66235,6.8953,0.535305,1.35901,-0.184111,1.77539,56.4727,31.0078
-1.29766,-2.71981,6.95755,0.543819,1.34305,-0.174533,1.77539,56.4727,31.0078
-1.35033,-2.68629,6.78517,0.550204,1.33454,-0.157505,1.77539,56.4727,31.0078
-1.43652,-2.69587,6.8953,0.554461,1.31964,-0.145799,1.77539,56.4727,31.0078
-1.38385,-2.63841,6.92403,0.562975,1.30367,-0.126643,1.77539,56.4727,31.0078
-1.5275,-2.82516,6.84263,0.574681,1.29197,-0.117065,1.77539,56.4727,31.0078
-1.57538,-2.70545,6.66546,0.577874,1.276,-0.109615,1.77539,56.4727,31.0078
-1.53708,-2.75812,6.84742,0.586388,1.2643,-0.0936517,1.77539,56.4727,31.0078
-1.50356,-2.74854,6.86657,0.59703,1.2494,-0.0787526,1.77539,56.4727,31.0078
-1.51792,-2.78685,6.7708,0.59703,1.23769,-0.0670461,1.77539,56.4727,31.0078
-1.42216,-2.83952,6.88094,0.606608,1.2196,-0.0564039,1.77539,56.4727,31.0078
-1.53708,-2.94008,6.92882,0.620443,1.2047,-0.0361836,1.77539,56.4727,31.0078
-1.45089,-2.9305,6.88572,0.622571,1.19193,-0.019156,1.77539,56.4727,31.0078
-1.45089,-2.8491,6.69898,0.632149,1.18022,-0.00957802,1.77539,56.4727,31.0078
-1.46046,-2.94008,6.76123,0.642791,1.17065,0.00319267,1.77539,56.4727,31.0078
-1.34554,-2.93529,6.78996,0.64492,1.15149,0.0148991,1.77539,56.4727,31.0078
-1.30245,-2.85389,6.8139,0.655562,1.13446,0.0223487,1.77539,56.4727,31.0078
-1.32639,-2.85868,6.67982,0.664076,1.12276,0.042569,1.77539,56.4727,31.0078
-1.26893,-2.91614,6.91445,0.67259,1.10999,0.0542754,1.77539,56.4727,31.0078
-1.3216,-2.82037,6.80911,0.680039,1.09402,0.071303,1.77539,56.4727,31.0078
-1.34554,-2.75333,6.72771,0.689617,1.07593,0.0872664,1.77539,56.4727,31.0078
-1.33596,-2.94966,6.72771,0.698131,1.06635,0.0936517,1.77539,56.4727,31.0078
-1.3216,-2.96881,6.54575,0.703452,1.05145,0.104294,1.77539,56.4727,31.0078
-1.35991,-2.73897,6.57448,0.708773,1.03655,0.120257,1.77539,56.4727,31.0078
-1.35991,-2.72939,6.77559,0.715159,1.02485,0.133028,1.77539,56.4727,31.0078
-1.25456,-2.77727,6.58405,0.718351,1.01208,0.142606,1.77539,56.4727,31.0078
-1.33596,-2.83473,6.55054,0.725801,1.00037,0.156441,1.77539,56.4727,31.0078
-1.32639,-2.77727,6.57927,0.730058,0.989729,0.17134,1.77539,56.4727,31.0078
-1.44131,-2.63362,6.57448,0.739636,0.971637,0.179854,1.77539,56.4727,31.0078
-1.34554,-2.65278,6.51702,0.743893,0.958866,0.193689,1.77539,56.4727,31.0078
-1.29287,-2.64799,6.54096,0.752407,0.952481,0.203267,1.77539,56.4727,31.0078
-1.33118,-2.59053,6.45477,0.752407,0.93971,0.216038,1.77539,56.4727,31.0078
-1.23541,-2.73897,6.51702,0.752407,0.93226,0.224551,1.77539,56.4727,31.0078
-1.39821,-2.57137,6.37336,0.76092,0.91949,0.234129,1.77539,56.4727,31.0078
-1.38864,-2.54743,6.47871,0.76837,0.904591,0.256478,1.77539,56.4727,31.0078
-1.31681,-2.55222,6.43083,0.774755,0.893948,0.266056,1.77539,56.4727,31.0078
-1.33118,-2.42772,6.51702,0.780076,0.885435,0.273506,1.77539,56.4727,31.0078
-1.45089,-2.44687,6.36858,0.780076,0.869471,0.286276,1.77539,56.4727,31.0078
-1.38864,-2.32238,6.57927,0.781141,0.859893,0.300111,1.77539,56.4727,31.0078
-1.38385,-2.2697,6.49786,0.787526,0.851379,0.308625,1.77539,56.4727,31.0078
-1.41258,-2.23618,6.4835,0.792847,0.842866,0.320332,1.77539,56.4727,31.0078
-1.45567,-2.21703,6.46913,0.793911,0.830095,0.336295,1.77539,56.4727,31.0078
-1.43173,-2.25534,6.50265,0.794976,0.818388,0.345873,1.77539,56.4727,31.0078
-1.49877,-2.23618,6.61278,0.801361,0.813067,0.357579,1.77539,56.4727,31.0078
-1.5275,-2.27449,6.59842,0.802425,0.804554,0.371414,1.77539,56.4727,31.0078
-1.59933,-2.25534,6.59363,0.802425,0.794976,0.382057,1.77539,56.4727,31.0078
-1.58496,-2.20745,6.57448,0.807746,0.783269,0.391635,1.77539,56.4727,31.0078
-1.56581,-2.17394,6.62236,0.810939,0.76837,0.406534,1.77539,56.4727,31.0078
-1.58975,-2.04465,6.50265,0.813067,0.759856,0.422497,1.77539,56.4727,31.0078
-1.56581,-2.1452,6.67982,0.814132,0.74815,0.434204,1.77539,56.4727,31.0078
-1.56581,-2.0638,6.54575,0.817324,0.742829,0.446974,1.77539,56.4727,31.0078
-1.61369,-2.00634,6.47871,0.81626,0.734315,0.457616,1.77539,56.4727,31.0078
-1.59933,-2.07817,6.60321,0.818388,0.723673,0.469323,1.77539,56.4727,31.0078
-1.70946,-2.03028,6.63194,0.820517,0.715159,0.482094,1.77539,56.4727,31.0078
-1.72861,-2.08296,6.55054,0.817324,0.707709,0.495929,1.77539,56.4727,31.0078
-1.652,-1.99198,6.77559,0.815196,0.698131,0.505507,1.77539,56.4727,31.0078
-1.72861,-1.94409,6.73249,0.81626,0.686425,0.516149,1.77539,56.4727,31.0078
-1.68073,-2.01592,6.54096,0.819453,0.682168,0.529984,1.77539,56.4727,31.0078
-1.80044,-1.87227,6.69898,0.817324,0.669397,0.544883,1.77539,56.4727,31.0078
-1.79086,-1.83875,6.78038,0.817324,0.660883,0.559782,1.77539,56.4727,31.0078
-1.83875,-1.92015,6.74686,0.819453,0.651305,0.568296,1.77539,56.4727,31.0078
-1.72861,-1.87227,6.76601,0.81626,0.638535,0.580002,1.77539,56.4727,31.0078
-1.84354,-1.76692,6.67982,0.813067,0.626828,0.598094,1.77539,56.4727,31.0078
-1.8579,-1.79086,6.72292,0.809875,0.61725,0.615122,1.77539,56.4727,31.0078
-1.78129,-1.82438,6.87136,0.80881,0.609801,0.625764,1.77539,56.4727,31.0078
-1.76213,-1.74777,6.63194,0.805618,0.598094,0.642791,1.77539,56.4727,31.0078
-1.901,-1.74777,6.58405,0.802425,0.585323,0.658755,1.77539,56.4727,31.0078
-1.76213,-1.72861,6.68461,0.805618,0.571488,0.670461,1.77539,56.4727,31.0078
-1.79086,-1.65679,6.76601,0.801361,0.562975,0.690682,1.77539,56.4727,31.0078
-1.80523,-1.74777,6.73728,0.79604,0.547011,0.703452,1.77539,56.4727,31.0078
-1.78607,-1.58017,6.82826,0.786462,0.535305,0.717287,1.77539,56.4727,31.0078
-1.67115,-1.58975,6.62715,0.783269,0.518277,0.734315,1.77539,56.4727,31.0078
-1.70467,-1.60412,6.69419,0.782205,0.504442,0.746021,1.77539,56.4727,31.0078
-1.75256,-1.68552,6.66067,0.774755,0.490607,0.76092,1.77539,56.4727,31.0078
-1.70467,-1.58975,6.78996,0.769434,0.47358,0.775819,1.77539,56.4727,31.0078
-1.62327,-1.51314,6.71813,0.759856,0.459745,0.792847,1.77539,56.4727,31.0078
-1.56102,-1.4461,6.70855,0.757728,0.439525,0.806682,1.77539,56.4727,31.0078
-1.62806,-1.49877,6.68461,0.747085,0.423561,0.826902,1.77539,56.4727,31.0078
-1.68073,-1.47962,6.62236,0.739636,0.410791,0.835416,1.77539,56.4727,31.0078
-1.61369,-1.5275,6.69419,0.734315,0.392699,0.849251,1.77539,56.4727,31.0078
-1.53708,-1.39343,6.78038,0.728994,0.372478,0.86415,1.77539,56.4727,31.0078
-1.65679,-1.43652,6.59842,0.722608,0.357579,0.885435,1.77539,56.4727,31.0078
-1.58496,-1.28808,6.53138,0.709838,0.336295,0.898205,1.77539,56.4727,31.0078
-1.61369,-1.29287,6.60321,0.70026,0.321396,0.906719,1.77539,56.4727,31.0078
-1.60412,-1.17316,6.78038,0.69281,0.304368,0.921618,1.77539,56.4727,31.0078
-1.58975,-1.29287,6.6463,0.680039,0.278827,0.93971,1.77539,56.4727,31.0078
-1.64242,-1.17316,6.53617,0.670461,0.261799,0.950352,1.77539,56.4727,31.0078
-1.61369,-1.10133,6.57448,0.655562,0.244772,0.968444,1.77539,56.4727,31.0078
-1.67115,-1.09654,6.62236,0.647048,0.223487,0.972701,1.77539,56.4727,31.0078
-1.72861,-1.07739,6.60321,0.640663,0.208588,0.988664,1.77539,56.4727,31.0078
-1.7334,-1.0343,6.67025,0.632149,0.19156,1.00463,1.77539,56.4727,31.0078
-1.76213,-1.01035,6.50265,0.620443,0.170276,1.02166,1.77539,56.4727,31.0078
-1.82438,-1.00556,6.58405,0.605544,0.15112,1.03017,1.77539,56.4727,31.0078
-1.80523,-0.943315,6.66546,0.601287,0.128771,1.044,1.77539,56.4727,31.0078
-1.76213,-0.962469,6.63194,0.58958,0.109615,1.06529,1.77539,56.4727,31.0078
-1.901,-0.914585,6.56969,0.577874,0.0883306,1.077,1.77539,56.4727,31.0078
-1.80523,-0.876278,6.55532,0.568296,0.0691746,1.08338,1.77539,56.4727,31.0078
-1.86269,-0.890643,6.59363,0.552332,0.042569,1.10254,1.77539,56.4727,31.0078
-1.89621,-0.847547,6.69419,0.542754,0.0266056,1.12063,1.77539,56.4727,31.0078
-1.89621,-0.972046,6.60321,0.537433,0.0127707,1.13446,1.77539,56.4727,31.0078
-1.94409,-0.885855,6.60321,0.52147,-0.0106422,1.14511,1.77539,56.4727,31.0078
-1.96803,-0.919373,6.61278,0.507635,-0.0319267,1.15788,1.77539,56.4727,31.0078
-2.13563,-0.814029,6.61278,0.500185,-0.0574681,1.16745,1.77539,56.4727,31.0078
-2.08774,-0.78051,6.51223,0.486351,-0.0734315,1.18022,1.77539,56.4727,31.0078
-2.11647,-0.78051,6.58884,0.478901,-0.0915233,1.19087,1.77539,56.4727,31.0078
-2.08774,-0.775721,6.74207,0.471451,-0.113872,1.20364,1.77539,56.4727,31.0078
-2.28407,-0.770933,6.81869,0.464002,-0.133028,1.21854,1.77539,56.4727,31.0078
-2.22661,-0.737414,6.47392,0.45336,-0.162826,1.22599,1.77539,56.4727,31.0078
-2.29365,-0.732626,6.7708,0.442717,-0.17879,1.23769,1.77539,56.4727,31.0078
-2.3942,-0.679953,6.62715,0.433139,-0.200074,1.25366,1.77539,56.4727,31.0078
-2.36547,-0.665588,6.71334,0.42569,-0.21923,1.26111,1.77539,56.4727,31.0078
-2.32716,-0.641646,6.55532,0.412919,-0.237322,1.26962,1.77539,56.4727,31.0078
-2.44209,-0.703895,6.73728,0.405469,-0.261799,1.27813,1.77539,56.4727,31.0078
-2.38462,-0.579397,6.62236,0.402277,-0.282019,1.28878,1.77539,56.4727,31.0078
-2.42293,-0.651223,6.74686,0.394827,-0.304368,1.29729,1.77539,56.4727,31.0078
-2.49476,-0.531513,6.69419,0.388442,-0.323524,1.30793,1.77539,56.4727,31.0078
-2.35589,-0.531513,6.87615,0.380992,-0.348001,1.31751,1.77539,56.4727,31.0078
-2.46603,-0.579397,6.67982,0.374607,-0.366093,1.31964,1.77539,56.4727,31.0078
-2.49955,-0.536301,6.62236,0.366093,-0.385249,1.32709,1.77539,56.4727,31.0078
-2.48039,-0.454898,6.64152,0.360772,-0.409726,1.33773,1.77539,56.4727,31.0078
-2.43251,-0.42138,6.61757,0.356515,-0.434204,1.34305,1.77539,56.4727,31.0078
-2.49955,-0.474052,6.67503,0.35013,-0.456552,1.34944,1.77539,56.4727,31.0078
-2.41814,-0.45011,6.73728,0.346937,-0.477837,1.36221,1.77539,56.4727,31.0078
-2.4373,-0.416591,6.70855,0.337359,-0.50125,1.36114,1.77539,56.4727,31.0078
-2.50433,-0.392649,6.82347,0.333102,-0.52147,1.36008,1.77539,56.4727,31.0078
-2.38462,-0.392649,6.81869,0.328845,-0.543819,1.36646,1.77539,56.4727,31.0078
-2.35111,-0.368707,6.67025,0.326717,-0.571488,1.37285,1.77539,56.4727,31.0078
-2.32716,-0.335188,6.6463,0.330974,-0.59703,1.37711,1.77539,56.4727,31.0078
-2.37984,-0.344765,6.61278,0.320332,-0.61725,1.37817,1.77539,56.4727,31.0078
-2.35589,-0.339977,6.78038,0.317139,-0.635342,1.37498,1.77539,56.4727,31.0078
-2.26491,-0.296881,6.77559,0.309689,-0.664076,1.37711,1.77539,56.4727,31.0078
-2.25055,-0.383072,6.69419,0.308625,-0.686425,1.37391,1.77539,56.4727,31.0078
-2.25055,-0.335188,6.75165,0.307561,-0.709838,1.37711,1.77539,56.4727,31.0078
-2.24097,-0.158017,6.7708,0.310753,-0.73325,1.3803,1.77539,56.4727,31.0078
-2.20267,-0.296881,6.62715,0.304368,-0.753471,1.3803,1.77539,56.4727,31.0078
-2.22661,-0.215478,6.90009,0.299047,-0.775819,1.38136,1.77539,56.4727,31.0078
-2.21703,-0.220267,6.77559,0.293726,-0.798168,1.37817,1.77539,56.4727,31.0078
-2.12605,-0.0909797,6.88094,0.288405,-0.820517,1.37604,1.77539,56.4727,31.0078
-2.11169,-0.220267,6.69419,0.285212,-0.841801,1.37817,1.77539,56.4727,31.0078
-2.09732,-0.215478,6.94318,0.284148,-0.865214,1.37923,1.77539,56.4727,31.0078
-2.14999,-0.201113,6.98149,0.279891,-0.882242,1.37498,1.77539,56.4727,31.0078
-2.07338,-0.0909797,6.88572,0.273506,-0.898205,1.37179,1.77539,56.4727,31.0078
-2.02071,-0.181959,6.82826,0.273506,-0.920554,1.36327,1.77539,56.4727,31.0078
-2.00155,-0.191536,6.88094,0.262863,-0.943967,1.36008,1.77539,56.4727,31.0078
-1.99676,-0.138864,6.74686,0.257542,-0.962059,1.35901,1.77539,56.4727,31.0078
-1.87227,-0.110133,6.83784,0.256478,-0.976958,1.35582,1.77539,56.4727,31.0078
-1.82917,-0.143652,6.8953,0.251157,-0.990793,1.35689,1.77539,56.4727,31.0078
-1.89621,0.00957681,6.92403,0.242643,-1.00569,1.34731,1.77539,56.4727,31.0078
-1.84832,-0.105345,6.89051,0.235194,-1.02272,1.34305,1.77539,56.4727,31.0078
-1.7765,-0.00957681,6.88572,0.22668,-1.03975,1.33986,1.77539,56.4727,31.0078
-1.82438,-0.11971,6.79474,0.222423,-1.05252,1.33454,1.77539,56.4727,31.0078
-1.84354,-0.0622492,6.97192,0.214973,-1.06316,1.33028,1.77539,56.4727,31.0078
-1.79086,0,6.98628,0.203267,-1.08019,1.32709,1.77539,56.4727,31.0078
-1.70946,-0.023942,6.96234,0.193689,-1.09189,1.32177,1.77539,56.4727,31.0078
-1.84354,0,6.91924,0.186239,-1.10254,1.3207,1.77539,56.4727,31.0078
-1.78129,0.023942,6.94797,0.17879,-1.11424,1.31006,1.77539,56.4727,31.0078
-1.70467,-0.0622492,6.96234,0.168147,-1.12276,1.30793,1.77539,56.4727,31.0078
-1.76213,0.0191536,6.79474,0.155377,-1.1334,1.30048,1.77539,56.4727,31.0078
-1.70467,0.0287304,7.01022,0.153248,-1.14511,1.29197,1.77539,56.4727,31.0078
-1.72383,0.0143652,6.89051,0.141542,-1.15468,1.28984,1.77539,56.4727,31.0078
-1.70946,0.00957681,6.9767,0.129835,-1.15575,1.28452,1.77539,56.4727,31.0078
-1.67115,-0.0526724,7.00543,0.124514,-1.16213,1.276,1.77539,56.4727,31.0078
-1.62806,-0.0622492,6.94797,0.117065,-1.1749,1.27068,1.77539,56.4727,31.0078
-1.56581,-0.0670376,6.97192,0.109615,-1.18022,1.26004,1.77539,56.4727,31.0078
-1.54187,-0.0622492,6.92403,0.10323,-1.18448,1.25366,1.77539,56.4727,31.0078
-1.42694,-0.0047884,6.8953,0.0904591,-1.18767,1.24408,1.77539,56.4727,31.0078
-1.42694,-0.00957681,6.97192,0.0819453,-1.19619,1.23769,1.77539,56.4727,31.0078
-1.42216,-0.100556,6.92882,0.0734315,-1.20151,1.23024,1.77539,56.4727,31.0078
-1.47962,-0.0670376,7.07247,0.0627892,-1.20683,1.22918,1.77539,56.4727,31.0078
-1.403,0.00957681,6.97192,0.0553397,-1.21109,1.2196,1.77539,56.4727,31.0078
-1.34075,-0.023942,7.07726,0.0457616,-1.21534,1.20789,1.77539,56.4727,31.0078
-1.37906,-0.00957681,6.99107,0.0340552,-1.2196,1.19832,1.77539,56.4727,31.0078
-1.30723,-0.0047884,6.94797,0.0244772,-1.22599,1.18874,1.77539,56.4727,31.0078
-1.36469,0.0143652,7.00543,0.0180918,-1.22705,1.1781,1.77539,56.4727,31.0078
-1.38864,0.0191536,6.84263,0.00532112,-1.23556,1.17597,1.77539,56.4727,31.0078
-1.41258,0.0861913,6.91445,0.00319267,-1.24621,1.16639,1.77539,56.4727,31.0078
-1.30723,0.071826,6.98628,-0.00319267,-1.24727,1.15468,1.77539,56.4727,31.0078
-1.40779,-0.0287304,6.91924,-0.0138349,-1.25046,1.14085,1.77539,56.4727,31.0078
-1.29766,0.0143652,6.87615,-0.0266056,-1.25578,1.13127,1.77539,56.4727,31.0078
-1.38385,0.129287,6.82826,-0.0308625,-1.26323,1.12382,1.77539,56.4727,31.0078
-1.24977,0.114922,6.91445,-0.0319267,-1.26962,1.11211,1.77539,56.4727,31.0078
-1.34075,0.0766145,6.99107,-0.0404405,-1.276,1.10254,1.77539,56.4727,31.0078
-1.37427,0.134075,6.94318,-0.0446974,-1.28345,1.09189,1.77539,56.4727,31.0078
-1.24977,0.129287,6.91445,-0.0436332,-1.28771,1.08338,1.77539,56.4727,31.0078
-1.35033,0.148441,6.89051,-0.0468259,-1.29623,1.06955,1.77539,56.4727,31.0078
-1.37427,0.100556,6.97192,-0.0532112,-1.30261,1.05784,1.77539,56.4727,31.0078
-1.31681,0.0670376,7.04853,-0.0542754,-1.31325,1.05252,1.77539,56.4727,31.0078
-1.34554,0.129287,7.0198,-0.0564039,-1.31964,1.04081,1.77539,56.4727,31.0078
-1.403,0.186748,6.90967,-0.061725,-1.32283,1.03123,1.77539,56.4727,31.0078
-1.3216,0.129287,6.99586,-0.0649177,-1.32922,1.01846,1.77539,56.4727,31.0078
-1.33118,0.158017,7.06289,-0.0595966,-1.34092,1.00995,1.77539,56.4727,31.0078
-1.31681,0.258574,7.13472,-0.0553397,-1.34944,0.998242,1.77539,56.4727,31.0078
-1.35991,0.0766145,6.98628,-0.0585323,-1.35901,0.989729,1.77539,56.4727,31.0078
-1.3216,0.177171,7.07247,-0.052147,-1.37072,0.980151,1.77539,56.4727,31.0078
-1.43652,0.129287,7.1443,-0.0489543,-1.37923,0.968444,1.77539,56.4727,31.0078
-1.34075,0.177171,7.22091,-0.0468259,-1.38881,0.95993,1.77539,56.4727,31.0078
-1.31202,0.153229,7.22091,-0.0446974,-1.39839,0.954609,1.77539,56.4727,31.0078
-1.16358,0.167594,7.25443,-0.0393763,-1.41329,0.93971,1.77539,56.4727,31.0078
-1.30245,0.172383,7.24485,-0.0361836,-1.42712,0.935453,1.77539,56.4727,31.0078
-1.25456,0.335188,7.3071,-0.032991,-1.42819,0.923747,1.77539,56.4727,31.0078
-1.16358,0.248997,7.45076,-0.0297983,-1.4367,0.908848,1.77539,56.4727,31.0078
-1.14443,0.272939,7.48427,-0.0223487,-1.4516,0.903526,1.77539,56.4727,31.0078
-1.01993,0.349553,7.43639,-0.0223487,-1.45905,0.895013,1.77539,56.4727,31.0078
-1.09654,0.225055,7.46512,-0.0127707,-1.47395,0.888627,1.77539,56.4727,31.0078
-1.01514,0.248997,7.46991,-0.0106422,-1.48566,0.876921,1.77539,56.4727,31.0078
-0.905008,0.225055,7.49864,-0.00532112,-1.4963,0.8716,1.77539,56.4727,31.0078
-0.905008,0.282516,7.55131,0.00532112,-1.50481,0.869471,1.77539,56.4727,31.0078
-0.814029,0.349553,7.62793,0.00851379,-1.51865,0.852444,1.77539,56.4727,31.0078
-0.837971,0.387861,7.58004,0.0159634,-1.53035,0.838609,1.77539,56.4727,31.0078
-0.775721,0.430956,7.66145,0.019156,-1.53887,0.830095,1.77539,56.4727,31.0078
-0.785298,0.306458,7.60877,0.0266056,-1.54525,0.829031,1.77539,56.4727,31.0078
-0.766145,0.407014,7.58483,0.032991,-1.55483,0.820517,1.77539,56.4727,31.0078
-0.608127,0.45011,7.57047,0.0340552,-1.56867,0.810939,1.77539,56.4727,31.0078
-0.632069,0.392649,7.73327,0.0340552,-1.57824,0.805618,1.77539,56.4727,31.0078
-0.545878,0.493206,7.77637,0.0404405,-1.57931,0.801361,1.77539,56.4727,31.0078
-0.6608,0.42138,7.75721,0.0510828,-1.59421,0.794976,1.77539,56.4727,31.0078
-0.507571,0.454898,7.78116,0.0500185,-1.60166,0.787526,1.77539,56.4727,31.0078
-0.474052,0.464475,7.72848,0.0542754,-1.60804,0.780076,1.77539,56.4727,31.0078
-0.512359,0.464475,7.78116,0.0542754,-1.61336,0.771563,1.77539,56.4727,31.0078
-0.507571,0.555455,7.90087,0.0564039,-1.61017,0.766241,1.77539,56.4727,31.0078
-0.411803,0.507571,7.81946,0.0606608,-1.61762,0.764113,1.77539,56.4727,31.0078
-0.407014,0.579397,7.80989,0.0659819,-1.6272,0.76092,1.77539,56.4727,31.0078
-0.287304,0.617704,7.86256,0.0659819,-1.63465,0.756663,1.77539,56.4727,31.0078
-0.35913,0.617704,7.75243,0.0681104,-1.63465,0.752407,1.77539,56.4727,31.0078
-0.35913,0.617704,8.011,0.0638535,-1.63465,0.746021,1.77539,56.4727,31.0078
-0.383072,0.665588,7.8865,0.0670461,-1.63678,0.749214,1.77539,56.4727,31.0078
-0.325611,0.636858,8.12592,0.0670461,-1.64103,0.747085,1.77539,56.4727,31.0078
-0.344765,0.737414,8.0924,0.0681104,-1.63997,0.739636,1.77539,56.4727,31.0078
-0.23942,0.703895,8.14986,0.0649177,-1.64423,0.735379,1.77539,56.4727,31.0078
-0.292093,0.723049,8.18338,0.0638535,-1.64742,0.734315,1.77539,56.4727,31.0078
-0.268151,0.703895,8.03494,0.0606608,-1.64423,0.73325,1.77539,56.4727,31.0078
-0.344765,0.756568,8.16423,0.0542754,-1.64635,0.732186,1.77539,56.4727,31.0078
-0.301669,0.785298,8.11634,0.052147,-1.64423,0.73325,1.77539,56.4727,31.0078
-0.268151,0.727837,8.24084,0.0510828,-1.6421,0.73325,1.77539,56.4727,31.0078
-0.201113,0.737414,8.16902,0.0457616,-1.63997,0.734315,-8.69941,53.0771,28.0793
-0.263362,0.857124,8.29351,0.0404405,-1.64316,0.735379,-8.69941,53.0771,28.0793
-0.311246,0.751779,8.31746,0.0415047,-1.63997,0.736443,-8.69941,53.0771,28.0793
-0.277727,0.823605,8.2169,0.0372479,-1.63678,0.737507,-8.69941,53.0771,28.0793
-0.244209,0.857124,8.31746,0.032991,-1.63678,0.736443,-8.69941,53.0771,28.0793
-0.258574,0.823605,8.39886,0.0266056,-1.63358,0.735379,-8.69941,53.0771,28.0793
-0.177171,0.986411,8.51857,0.0297983,-1.62613,0.741764,-8.69941,53.0771,28.0793
-0.158017,0.943315,8.53772,0.0255414,-1.62294,0.744957,-8.69941,53.0771,28.0793
-0.181959,0.995988,8.65265,0.019156,-1.62081,0.7407,-8.69941,53.0771,28.0793
-0.153229,0.919373,8.53772,0.0127707,-1.61869,0.746021,-8.69941,53.0771,28.0793
-0.047884,1.02472,8.57124,0.0117065,-1.61762,0.750278,-8.69941,53.0771,28.0793
-0.0909797,1.01514,8.52336,0.00851379,-1.6123,0.74815,-8.69941,53.0771,28.0793
-0.0047884,1.01035,8.57603,-0.00319267,-1.60591,0.747085,-8.69941,53.0771,28.0793
-0.023942,0.986411,8.97347,-0.00319267,-1.60059,0.754535,-8.69941,53.0771,28.0793
0.0047884,0.914585,8.74362,-0.00319267,-1.59846,0.759856,-8.69941,53.0771,28.0793
0.071826,0.905008,8.61434,-0.00851379,-1.59634,0.750278,-8.69941,53.0771,28.0793
0.0526724,0.914585,8.90164,-0.0138349,-1.59208,0.74815,-8.69941,53.0771,28.0793
0.134075,0.842759,8.65743,-0.0234129,-1.58995,0.754535,-8.69941,53.0771,28.0793
0.23942,0.866701,8.70053,-0.0287341,-1.58676,0.758792,-8.69941,53.0771,28.0793
0.220267,0.938527,8.78193,-0.0340552,-1.57931,0.756663,-8.69941,53.0771,28.0793
0.186748,0.895431,8.90643,-0.0383121,-1.57612,0.753471,-8.69941,53.0771,28.0793
0.201113,0.852336,8.7963,-0.0457616,-1.57399,0.754535,-8.69941,53.0771,28.0793
0.158017,0.972046,8.93995,-0.0574681,-1.5708,0.76092,-8.69941,53.0771,28.0793
0.186748,0.871489,8.80109,-0.0595966,-1.56228,0.756663,-8.69941,53.0771,28.0793
0.215478,0.948104,8.88728,-0.0681104,-1.56228,0.757728,-8.69941,53.0771,28.0793
0.248997,0.92895,9.03572,-0.0755599,-1.55696,0.765177,-8.69941,53.0771,28.0793
0.205901,0.890643,8.93516,-0.080881,-1.55377,0.76837,-8.69941,53.0771,28.0793
0.215478,0.952892,8.90643,-0.0840737,-1.55057,0.76837,-8.69941,53.0771,28.0793
0.306458,0.948104,8.96868,-0.0936517,-1.54313,0.764113,-8.69941,53.0771,28.0793
0.435745,0.952892,8.96868,-0.0989729,-1.53568,0.766241,-8.69941,53.0771,28.0793
0.272939,1.00078,8.95431,-0.107487,-1.53461,0.770498,-8.69941,53.0771,28.0793
0.316035,0.952892,8.91122,-0.114936,-1.53142,0.772627,-8.69941,53.0771,28.0793
0.373495,0.952892,8.93516,-0.127707,-1.5261,0.775819,-8.69941,53.0771,28.0793
0.320823,1.01035,8.7963,-0.126643,-1.51971,0.777948,-8.69941,53.0771,28.0793
0.344765,0.986411,8.99262,-0.134092,-1.51865,0.781141,-8.69941,53.0771,28.0793
0.378284,0.995988,9.02135,-0.141542,-1.51439,0.776884,-8.69941,53.0771,28.0793
0.392649,1.0343,8.86333,-0.145799,-1.51013,0.785398,-8.69941,53.0771,28.0793
0.45011,1.05345,8.98783,-0.152184,-1.50481,0.786462,-8.69941,53.0771,28.0793
0.502782,0.943315,9.02135,-0.156441,-1.50481,0.785398,-8.69941,53.0771,28.0793
0.521936,1.01035,8.98304,-0.158569,-1.50162,0.791783,-8.69941,53.0771,28.0793
0.445322,0.938527,9.14106,-0.157505,-1.49843,0.787526,-8.69941,53.0771,28.0793
0.54109,1.05345,9.13148,-0.168147,-1.49736,0.784333,-8.69941,53.0771,28.0793
0.579397,1.11091,9.14585,-0.170276,-1.49311,0.78859,-8.69941,53.0771,28.0793
0.603339,1.09176,9.15064,-0.169212,-1.48991,0.782205,-8.69941,53.0771,28.0793
0.670376,0.919373,9.39485,-0.172404,-1.48779,0.782205,-8.69941,53.0771,28.0793
0.732626,1.01035,9.29908,-0.175597,-1.48459,0.780076,-8.69941,53.0771,28.0793
0.718261,1.09176,9.35175,-0.169212,-1.47395,0.775819,-8.69941,53.0771,28.0793
0.68953,1.05345,9.38048,-0.169212,-1.47501,0.774755,-8.69941,53.0771,28.0793
0.742203,1.06303,9.42837,-0.164955,-1.47289,0.765177,-8.69941,53.0771,28.0793
0.833182,1.13964,9.46667,-0.167083,-1.47501,0.76092,-8.69941,53.0771,28.0793
0.914585,1.0343,9.47625,-0.169212,-1.47076,0.76092,-8.69941,53.0771,28.0793
0.909797,0.952892,9.54808,-0.161762,-1.46757,0.755599,-8.69941,53.0771,28.0793
0.890643,1.00078,9.64863,-0.158569,-1.46544,0.741764,-8.69941,53.0771,28.0793
0.857124,1.03908,9.663,-0.159634,-1.45905,0.734315,-8.69941,53.0771,28.0793
0.885855,1.00078,9.69173,-0.159634,-1.45373,0.73325,-8.69941,53.0771,28.0793
0.967257,0.986411,9.92636,-0.153248,-1.4516,0.72048,-8.69941,53.0771,28.0793
0.909797,1.06303,9.84496,-0.147927,-1.44628,0.716223,-8.69941,53.0771,28.0793
0.871489,1.01514,9.89284,-0.150056,-1.44202,0.708773,-8.69941,53.0771,28.0793
0.833182,1.05824,9.9503,-0.147927,-1.44096,0.701324,-8.69941,53.0771,28.0793
0.890643,1.0726,9.95988,-0.144735,-1.4367,0.69281,-8.69941,53.0771,28.0793
0.80924,0.981623,9.92157,-0.144735,-1.43138,0.678975,-8.69941,53.0771,28.0793
0.871489,1.11091,9.99819,-0.136221,-1.43138,0.680039,-8.69941,53.0771,28.0793
0.799663,1.09176,10.0269,-0.138349,-1.42606,0.676847,-8.69941,53.0771,28.0793
0.837971,1.08697,10.0078,-0.138349,-1.4218,0.670461,-8.69941,53.0771,28.0793
0.823605,1.14922,10.1275,-0.1309,-1.41755,0.663012,-8.69941,53.0771,28.0793
0.818817,1.15879,10.0652,-0.135156,-1.40903,0.655562,-8.69941,53.0771,28.0793
0.818817,1.09176,10.1275,-0.137285,-1.40797,0.649177,-8.69941,53.0771,28.0793
0.799663,1.09654,10.1466,-0.135156,-1.40584,0.640663,-8.69941,53.0771,28.0793
0.80924,1.17316,10.2807,-0.135156,-1.39626,0.634278,-8.69941,53.0771,28.0793
0.823605,1.24977,10.2376,-0.131964,-1.38349,0.632149,-8.69941,53.0771,28.0793
0.78051,1.16837,10.1754,-0.138349,-1.38456,0.6247,-8.69941,53.0771,28.0793
0.770933,1.29287,10.2711,-0.138349,-1.38562,0.618314,-8.69941,53.0771,28.0793
0.814029,1.18752,10.2568,-0.137285,-1.37604,0.610865,-8.69941,53.0771,28.0793
0.814029,1.2402,10.2903,-0.139413,-1.36646,0.603415,-8.69941,53.0771,28.0793
0.885855,1.28808,10.3334,-0.146863,-1.36327,0.599158,-8.69941,53.0771,28.0793
0.881066,1.27372,10.2711,-0.147927,-1.36221,0.595966,-8.69941,53.0771,28.0793
0.847547,1.3216,10.3908,-0.153248,-1.36221,0.590644,-8.69941,53.0771,28.0793
0.909797,1.27372,10.4866,-0.156441,-1.36008,0.585323,-8.69941,53.0771,28.0793
0.909797,1.28329,10.4387,-0.156441,-1.35263,0.578938,-8.69941,53.0771,28.0793
0.948104,1.35033,10.386,-0.160698,-1.34624,0.573617,-8.69941,53.0771,28.0793
0.852336,1.36469,10.4004,-0.167083,-1.34199,0.56191,-8.69941,53.0771,28.0793
1.01514,1.35512,10.3669,-0.17134,-1.34199,0.560846,-8.69941,53.0771,28.0793
0.986411,1.39343,10.5872,-0.172404,-1.33241,0.558718,-8.69941,53.0771,28.0793
1.01035,1.29287,10.4722,-0.185175,-1.33454,0.548075,-8.69941,53.0771,28.0793
1.03908,1.34554,10.5345,-0.186239,-1.33241,0.537433,-8.69941,53.0771,28.0793
1.00556,1.38864,10.635,-0.193689,-1.33134,0.532112,-8.69941,53.0771,28.0793
1.05824,1.35512,10.6111,-0.201138,-1.33028,0.529984,-8.69941,53.0771,28.0793
1.15401,1.37427,10.5632,-0.208588,-1.33241,0.524663,-8.69941,53.0771,28.0793
1.06303,1.33118,10.726,-0.211781,-1.33347,0.51402,-8.69941,53.0771,28.0793
1.14922,1.25935,10.8122,-0.225616,-1.32922,0.505507,-10.2973,43.9629,30.6633
1.13006,1.31202,10.7404,-0.227744,-1.32709,0.502314,-10.2973,43.9629,30.6633
1.13485,1.34075,10.8697,-0.233065,-1.32922,0.496993,-10.2973,43.9629,30.6633
1.13006,1.35512,10.7883,-0.245836,-1.33347,0.492736,-10.2973,43.9629,30.6633
1.21147,1.32639,10.6255,-0.25435,-1.33773,0.488479,-10.2973,43.9629,30.6633
1.08697,1.42216,10.8457,-0.259671,-1.33134,0.482094,-10.2973,43.9629,30.6633
1.10133,1.25935,10.9367,-0.271377,-1.3356,0.477837,-10.2973,43.9629,30.6633
1.16837,1.35033,11.0085,-0.282019,-1.34199,0.47358,-10.2973,43.9629,30.6633
1.16837,1.29287,10.9846,-0.292662,-1.33773,0.472516,-10.2973,43.9629,30.6633
1.27372,1.37427,10.8553,-0.293726,-1.33667,0.470387,-10.2973,43.9629,30.6633
1.26893,1.34075,11.1043,-0.306497,-1.34199,0.457616,-10.2973,43.9629,30.6633
1.23541,1.37427,11.1091,-0.313946,-1.34412,0.454424,-10.2973,43.9629,30.6633
1.25456,1.33118,11.133,-0.320332,-1.34092,0.457616,-10.2973,43.9629,30.6633
1.18274,1.36948,11.1282,-0.332038,-1.34305,0.448038,-10.2973,43.9629,30.6633
1.20189,1.39821,11.2336,-0.338423,-1.34731,0.439525,-10.2973,43.9629,30.6633
1.23062,1.29287,11.1953,-0.340552,-1.34944,0.444846,-10.2973,43.9629,30.6633
1.21625,1.35991,11.3006,-0.35013,-1.34624,0.439525,-10.2973,43.9629,30.6633
1.20668,1.41258,11.3916,-0.358644,-1.34518,0.433139,-10.2973,43.9629,30.6633
1.20668,1.47004,11.4586,-0.3629,-1.34624,0.431011,-10.2973,43.9629,30.6633
1.2402,1.29287,11.4778,-0.374607,-1.35263,0.428882,-10.2973,43.9629,30.6633
1.33596,1.20668,11.4299,-0.379928,-1.34624,0.421433,-10.2973,43.9629,30.6633
1.37427,1.33596,11.6885,-0.383121,-1.34412,0.410791,-10.2973,43.9629,30.6633
1.37906,1.2402,11.4299,-0.39057,-1.3505,0.408662,-10.2973,43.9629,30.6633
1.43173,1.31681,11.5592,-0.399084,-1.35156,0.404405,-10.2973,43.9629,30.6633
1.33596,1.22104,11.5401,-0.404405,-1.34837,0.399084,-10.2973,43.9629,30.6633
1.47962,1.24498,11.5353,-0.408662,-1.3505,0.395891,-10.2973,43.9629,30.6633
1.46046,1.27372,11.8321,-0.412919,-1.34944,0.389506,-10.2973,43.9629,30.6633
1.66158,1.27372,11.5401,-0.419304,-1.34731,0.387378,-10.2973,43.9629,30.6633
1.73819,1.14922,11.406,-0.422497,-1.34624,0.376735,-10.2973,43.9629,30.6633
1.652,1.18752,11.8034,-0.423561,-1.34944,0.367157,-10.2973,43.9629,30.6633
1.68073,1.32639,11.9327,-0.435268,-1.34944,0.357579,-10.2973,43.9629,30.6633
1.59933,1.33118,11.8848,-0.44591,-1.35369,0.349066,-10.2973,43.9629,30.6633
1.67115,1.29287,11.9135,-0.464002,-1.35369,0.345873,-10.2973,43.9629,30.6633
1.70467,1.18274,11.8226,-0.465066,-1.35156,0.343744,-10.2973,43.9629,30.6633
1.71425,1.16837,11.8992,-0.460809,-1.34518,0.330974,-10.2973,43.9629,30.6633
1.80523,1.15879,11.8609,-0.462938,-1.34624,0.318203,-10.2973,43.9629,30.6633
1.91536,1.02472,11.9327,-0.470387,-1.3505,0.310753,-10.2973,43.9629,30.6633
1.8579,1.09654,11.8034,-0.478901,-1.3505,0.310753,-10.2973,43.9629,30.6633
1.79086,1.17795,11.971,-0.487415,-1.34944,0.303304,-10.2973,43.9629,30.6633
1.91057,1.12049,11.8944,-0.496993,-1.34944,0.291597,-10.2973,43.9629,30.6633
1.89142,1.11091,11.8848,-0.505507,-1.34518,0.284148,-10.2973,43.9629,30.6633
1.86269,1.08697,11.9519,-0.508699,-1.34518,0.27457,-10.2973,43.9629,30.6633
1.96803,1.18752,12.0333,-0.515085,-1.34837,0.271377,-10.2973,43.9629,30.6633
2.03028,1.09654,11.971,-0.523598,-1.34944,0.258606,-10.2973,43.9629,30.6633
2.02549,1.18274,12.0285,-0.529984,-1.34837,0.253285,-10.2973,43.9629,30.6633
2.07817,1.10612,12.1578,-0.536369,-1.34412,0.247964,-10.2973,43.9629,30.6633
2.12605,1.08697,11.971,-0.554461,-1.34092,0.238386,-10.2973,43.9629,30.6633
2.13084,1.13485,12.0668,-0.558718,-1.33773,0.22668,-10.2973,43.9629,30.6633
2.13084,1.17795,12.1099,-0.557654,-1.33773,0.220294,-10.2973,43.9629,30.6633
2.2314,1.22104,12.0476,-0.562975,-1.33454,0.214973,-10.2973,43.9629,30.6633
2.1883,1.23541,12.0811,-0.573617,-1.33134,0.205395,-10.2973,43.9629,30.6633
2.19788,1.14443,12.1003,-0.587452,-1.32389,0.194753,-10.2973,43.9629,30.6633
2.21224,1.12527,12.3014,-0.590644,-1.31751,0.186239,-10.2973,43.9629,30.6633
2.33674,1.15879,12.1913,-0.593837,-1.31645,0.174533,-10.2973,43.9629,30.6633
2.25534,1.03908,12.1913,-0.603415,-1.31432,0.168147,-10.2973,43.9629,30.6633
2.39899,0.909797,12.3541,-0.616186,-1.30474,0.160698,-10.2973,43.9629,30.6633
2.37505,0.890643,12.3062,-0.618314,-1.29623,0.150056,-10.2973,43.9629,30.6633
2.44209,0.837971,12.5983,-0.623635,-1.28984,0.14367,-10.2973,43.9629,30.6633
2.44209,0.847547,12.5025,-0.633213,-1.28026,0.1309,-10.2973,43.9629,30.6633
2.39899,0.770933,12.4498,-0.63747,-1.27494,0.126643,-10.2973,43.9629,30.6633
2.4756,0.790087,12.5696,-0.645984,-1.26536,0.120257,-10.2973,43.9629,30.6633
2.51391,0.761356,12.5935,-0.649177,-1.25685,0.111744,-10.2973,43.9629,30.6633
2.65278,0.785298,12.5983,-0.655562,-1.24621,0.106422,-10.2973,43.9629,30.6633
2.62883,0.761356,12.627,-0.66514,-1.23024,0.100037,-10.2973,43.9629,30.6633
2.52349,0.746991,12.5887,-0.673654,-1.22279,0.0925875,-10.2973,43.9629,30.6633
2.67193,0.804452,12.6031,-0.68536,-1.20789,0.080881,-10.2973,43.9629,30.6633
2.71502,0.78051,12.56,-0.687489,-1.193,0.0702388,-10.2973,43.9629,30.6633
2.75333,0.679953,12.6653,-0.697067,-1.17916,0.0670461,-10.2973,43.9629,30.6633
2.72939,0.684742,12.7036,-0.707709,-1.16426,0.0606608,-10.2973,43.9629,30.6633
2.70545,0.588974,12.6653,-0.717287,-1.15575,0.0542754,-10.2973,43.9629,30.6633
2.82037,0.6608,12.7372,-0.723673,-1.14511,0.0468259,-10.2973,43.9629,30.6633
2.88262,0.588974,12.5552,-0.73325,-1.13021,0.042569,-10.2973,43.9629,30.6633
2.87304,0.641646,12.4738,-0.736443,-1.11318,0.0393763,-10.2973,43.9629,30.6633
2.80122,0.59855,12.6031,-0.741764,-1.10041,0.0308625,-10.2973,43.9629,30.6633
2.82037,0.579397,12.627,-0.752407,-1.09189,0.0212845,-10.2973,43.9629,30.6633
2.86825,0.560243,12.6414,-0.766241,-1.07167,0.0170276,-10.2973,43.9629,30.6633
2.75812,0.603339,12.56,-0.774755,-1.0589,0.0148991,-10.2973,43.9629,30.6633
2.86825,0.483629,12.5217,-0.786462,-1.04294,0.0106422,-10.2973,43.9629,30.6633
2.8922,0.555455,12.5648,-0.797104,-1.0291,0.0042569,-10.2973,43.9629,30.6633
2.88262,0.469264,12.5408,-0.801361,-1.01846,0.00106422,-10.2973,43.9629,30.6633
2.88262,0.416591,12.4451,-0.806682,-1.00676,0.00106422,-10.2973,43.9629,30.6633
2.86347,0.464475,12.5121,-0.814132,-0.991857,-0.00212845,-10.2973,43.9629,30.6633
2.8922,0.392649,12.4498,-0.82371,-0.976958,-0.00638535,-10.2973,43.9629,30.6633
2.96881,0.311246,12.5408,-0.833288,-0.964187,-0.0106422,-10.2973,43.9629,30.6633
3.00233,0.325611,12.3876,-0.840737,-0.951416,-0.0148991,-10.2973,43.9629,30.6633
3.05021,0.191536,12.5743,-0.84393,-0.934389,-0.0138349,-10.2973,43.9629,30.6633
3.03106,0.153229,12.5696,-0.848187,-0.915233,-0.019156,-10.2973,43.9629,30.6633
2.92093,0.244209,12.6749,-0.853508,-0.897141,-0.019156,-10.2973,43.9629,30.6633
2.97839,0.167594,12.7036,-0.855636,-0.885435,-0.019156,-10.2973,43.9629,30.6633
3.01191,0.148441,12.7324,-0.862022,-0.873728,-0.0223487,-10.2973,43.9629,30.6633
2.98796,0.071826,12.8186,-0.862022,-0.857765,-0.0202203,-10.2973,43.9629,30.6633
3.10289,0.00957681,12.8233,-0.859893,-0.842866,-0.0202203,-10.2973,43.9629,30.6633
3.0981,0.047884,12.8856,-0.86415,-0.825838,-0.0223487,-10.2973,43.9629,30.6633
3.14598,-0.0574608,13.0053,-0.868407,-0.806682,-0.0255414,-10.2973,43.9629,30.6633
3.02627,-0.0526724,13.0197,-0.867343,-0.792847,-0.0223487,-10.2973,43.9629,30.6633
3.13162,-0.191536,12.9431,-0.86415,-0.776884,-0.0223487,-10.2973,43.9629,30.6633
3.03106,-0.172383,12.9861,-0.863086,-0.758792,-0.0223487,-10.2973,43.9629,30.6633
3.18908,-0.186748,13.0149,-0.857765,-0.738572,-0.0244772,-10.2973,43.9629,30.6633
3.18429,-0.258574,13.0149,-0.854572,-0.718351,-0.0234129,-10.2973,43.9629,30.6633
3.15556,-0.296881,13.0197,-0.847123,-0.699195,-0.0234129,-10.2973,43.9629,30.6633
3.16992,-0.402226,12.9526,-0.842866,-0.684296,-0.0244772,-10.2973,43.9629,30.6633
3.2226,-0.474052,13.0771,-0.833288,-0.658755,-0.0266056,-10.2973,43.9629,30.6633
3.22738,-0.474052,13.1921,-0.827967,-0.632149,-0.019156,-10.2973,43.9629,30.6633
3.15077,-0.517148,13.3501,-0.818388,-0.611929,-0.0212845,-10.2973,43.9629,30.6633
3.20344,-0.536301,13.2304,-0.813067,-0.594901,-0.0244772,-10.2973,43.9629,30.6633
3.21781,-0.636858,13.2687,-0.805618,-0.573617,-0.0234129,-10.2973,43.9629,30.6633
3.26569,-0.6608,13.2974,-0.797104,-0.545947,-0.0148991,-10.2973,43.9629,30.6633
3.26569,-0.694318,13.3596,-0.785398,-0.515085,-0.0148991,-10.2973,43.9629,30.6633
3.23217,-0.708684,13.3261,-0.773691,-0.496993,-0.0138349,-10.2973,43.9629,30.6633
3.27527,-0.723049,13.4458,-0.759856,-0.471451,-0.0106422,-10.2973,43.9629,30.6633
3.34231,-0.80924,13.3165,-0.751342,-0.450167,-0.0106422,-10.2973,43.9629,30.6633
3.34231,-0.814029,13.374,-0.737507,-0.427818,-0.00957802,-10.2973,43.9629,30.6633
3.34231,-0.775721,13.2782,-0.726865,-0.39802,-0.0106422,-10.2973,43.9629,30.6633
3.28963,-0.895431,13.3405,-0.709838,-0.369286,-0.00851379,-10.2973,43.9629,30.6633
3.25611,-0.981623,13.4027,-0.694938,-0.349066,-0.00638535,-10.2973,43.9629,30.6633
3.34709,-0.991199,13.441,-0.689617,-0.321396,-0.00638535,-10.2973,43.9629,30.6633
3.28963,-1.00556,13.374,-0.66514,-0.290533,-0.00532112,-10.2973,43.9629,30.6633
3.28484,-1.10133,13.556,-0.653434,-0.263928,0,-10.2973,43.9629,30.6633
3.28963,-1.14443,13.4937,-0.652369,-0.23945,0.00212845,-10.2973,43.9629,30.6633
3.38061,-1.3216,13.3453,-0.636406,-0.212845,0.00319267,-10.2973,43.9629,30.6633
3.29921,-1.18752,13.4315,-0.621507,-0.186239,0.00532112,-10.2973,43.9629,30.6633
3.23217,-1.30723,13.4746,-0.603415,-0.158569,0.00957802,-10.2973,43.9629,30.6633
3.32794,-1.22583,13.1394,-0.598094,-0.129835,0.00957802,-10.2973,43.9629,30.6633
3.34231,-1.16358,13.3788,-0.586388,-0.104294,0.00957802,-10.2973,43.9629,30.6633
3.29921,-1.3216,13.2016,-0.577874,-0.0776884,0.0159634,-10.2973,43.9629,30.6633
3.23696,-1.42216,13.1106,-0.567232,-0.0478901,0.019156,-10.2973,43.9629,30.6633
3.25611,-1.39821,13.1106,-0.555525,-0.0223487,0.0202203,-10.2973,43.9629,30.6633
3.22738,-1.43652,13.0197,-0.548075,0,0.0234129,-10.2973,43.9629,30.6633
3.21781,-1.43173,12.9,-0.537433,0.0212845,0.0287341,-10.2973,43.9629,30.6633
3.1795,-1.35512,12.9191,-0.523598,0.0500185,0.0393763,-10.2973,43.9629,30.6633
3.21302,-1.35991,12.8712,-0.512956,0.0830095,0.0415047,-10.2973,43.9629,30.6633
3.15556,-1.41258,12.9814,-0.506571,0.105358,0.0415047,-10.2973,43.9629,30.6633
2.98796,-1.48441,12.8473,-0.50125,0.128771,0.0436332,-10.2973,43.9629,30.6633
3.12683,-1.48919,13.058,-0.4938,0.155377,0.0595966,-10.2973,43.9629,30.6633
3.10289,-1.46525,13.0149,-0.483158,0.183047,0.0681104,-10.2973,43.9629,30.6633
2.95923,-1.43173,12.8617,-0.478901,0.208588,0.0734315,-10.2973,43.9629,30.6633
2.98796,-1.43652,12.9191,-0.472516,0.227744,0.0787526,-10.2973,43.9629,30.6633
2.94966,-1.43652,12.6701,-0.46613,0.252221,0.0883306,-10.2973,43.9629,30.6633
2.97839,-1.37427,12.7467,-0.461873,0.278827,0.0883306,-10.2973,43.9629,30.6633
2.85868,-1.403,12.7324,-0.455488,0.30224,0.0957802,-10.2973,43.9629,30.6633
2.95923,-1.43652,12.6653,-0.452295,0.319267,0.109615,-10.2973,43.9629,30.6633
2.95923,-1.41258,12.5983,-0.452295,0.34268,0.116,-10.2973,43.9629,30.6633
2.88262,-1.51792,12.5456,-0.45336,0.366093,0.118129,-10.2973,43.9629,30.6633
2.86347,-1.45089,12.5073,-0.446974,0.388442,0.122386,-10.2973,43.9629,30.6633
2.83473,-1.54665,12.4403,-0.446974,0.408662,0.128771,-10.2973,43.9629,30.6633
2.85389,-1.45567,12.4355,-0.441653,0.424625,0.138349,-10.2973,43.9629,30.6633
2.86825,-1.55623,12.3158,-0.448038,0.443782,0.148991,-10.2973,43.9629,30.6633
2.85868,-1.56581,12.1482,-0.450167,0.458681,0.153248,-10.2973,43.9629,30.6633
2.8922,-1.49877,12.1625,-0.448038,0.481029,0.158569,-10.2973,43.9629,30.6633
2.806,-1.5706,12.1386,-0.451231,0.503378,0.168147,-10.2973,43.9629,30.6633
2.88741,-1.51314,12.0668,-0.460809,0.520406,0.170276,-10.2973,43.9629,30.6633
2.88262,-1.38864,12.0907,-0.465066,0.536369,0.173469,-10.2973,43.9629,30.6633
2.85389,-1.49877,12.0141,-0.465066,0.552332,0.180918,-10.2973,43.9629,30.6633
2.73897,-1.44131,11.9471,-0.472516,0.56936,0.183047,-10.2973,43.9629,30.6633
2.70545,-1.36948,11.9231,-0.482094,0.586388,0.19156,-10.2973,43.9629,30.6633
2.63841,-1.48441,11.8082,-0.482094,0.605544,0.202203,-10.2973,43.9629,30.6633
2.62883,-1.48919,11.6741,-0.487415,0.616186,0.202203,-10.2973,43.9629,30.6633
2.68629,-1.45089,11.5688,-0.489543,0.628957,0.204331,-10.2973,43.9629,30.6633
2.57137,-1.46525,11.5975,-0.500185,0.640663,0.209652,-10.2973,43.9629,30.6633
2.61926,-1.50835,11.6741,-0.509763,0.656626,0.21923,-10.2973,43.9629,30.6633
2.55701,-1.53708,11.6262,-0.515085,0.67259,0.222423,-10.2973,43.9629,30.6633
2.56658,-1.47483,11.564,-0.522534,0.683232,0.224551,-10.2973,43.9629,30.6633
2.4756,-1.41737,11.4682,-0.526791,0.702388,0.233065,-10.2973,43.9629,30.6633
2.50433,-1.45567,11.6358,-0.531048,0.715159,0.235194,-10.2973,43.9629,30.6633
2.43251,-1.51314,11.5353,-0.544883,0.724737,0.241579,-10.2973,43.9629,30.6633
2.39899,-1.58496,11.4634,-0.552332,0.736443,0.23945,-10.2973,43.9629,30.6633
2.30322,-1.59933,11.497,-0.558718,0.753471,0.2469,-10.2973,43.9629,30.6633
2.24097,-1.55623,11.4586,-0.558718,0.763049,0.253285,-10.2973,43.9629,30.6633
2.22661,-1.63285,11.4778,-0.56936,0.775819,0.255414,-10.2973,43.9629,30.6633
2.20267,-1.60412,11.3677,-0.574681,0.784333,0.262863,-10.2973,43.9629,30.6633
2.16915,-1.652,11.2911,-0.577874,0.79604,0.264992,-10.2973,43.9629,30.6633
2.15957,-1.66636,11.2863,-0.587452,0.802425,0.266056,-10.2973,43.9629,30.6633
2.10211,-1.58017,11.1139,-0.594901,0.819453,0.270313,-10.2973,43.9629,30.6633
2.01113,-1.64242,11.2097,-0.593837,0.825838,0.271377,-10.2973,43.9629,30.6633
2.02549,-1.61848,11.2767,-0.601287,0.838609,0.272441,-10.2973,43.9629,30.6633
2.00155,-1.72383,11.1618,-0.601287,0.846058,0.278827,-10.2973,43.9629,30.6633
1.92494,-1.69988,11.2719,-0.603415,0.857765,0.286276,-10.2973,43.9629,30.6633
1.8148,-1.8148,11.2671,-0.604479,0.863086,0.289469,-10.2973,43.9629,30.6633
1.89142,-1.84832,11.2623,-0.611929,0.865214,0.290533,-10.2973,43.9629,30.6633
1.8579,-1.84832,11.2336,-0.612993,0.875857,0.296919,-10.2973,43.9629,30.6633
1.74298,-1.91536,11.4299,-0.605544,0.885435,0.297983,-10.2973,43.9629,30.6633
1.72861,-1.98719,11.2911,-0.601287,0.888627,0.301175,-10.2973,43.9629,30.6633
1.64242,-2.04465,11.3246,-0.600222,0.893948,0.310753,-10.2973,43.9629,30.6633
1.60412,-1.9824,11.2911,-0.598094,0.904591,0.312882,-10.2973,43.9629,30.6633
1.66158,-2.14999,11.2863,-0.58958,0.905655,0.317139,-10.2973,43.9629,30.6633
1.58975,-2.16915,11.3437,-0.583195,0.908848,0.324588,-10.2973,43.9629,30.6633
1.52271,-2.17394,11.4874,-0.583195,0.916297,0.328845,-10.2973,43.9629,30.6633
1.39821,-2.21703,11.2719,-0.572553,0.915233,0.332038,-10.2973,43.9629,30.6633
1.46525,-2.19788,11.2671,-0.568296,0.920554,0.335231,-10.2973,43.9629,30.6633
1.37427,-2.15478,11.3054,-0.56191,0.926939,0.344809,-10.2973,43.9629,30.6633
1.33118,-2.27928,11.3006,-0.550204,0.931196,0.348001,-10.2973,43.9629,30.6633
1.30245,-2.3128,11.4874,-0.539562,0.933325,0.351194,-10.2973,43.9629,30.6633
1.30723,-2.3128,11.3581,-0.529984,0.936517,0.352258,-10.2973,43.9629,30.6633
1.25456,-2.25055,11.4012,-0.526791,0.942903,0.357579,-10.2973,43.9629,30.6633
1.17795,-2.32238,11.3437,-0.508699,0.949288,0.368222,-10.2973,43.9629,30.6633
1.20668,-2.25055,11.1809,-0.50125,0.950352,0.37035,-10.2973,43.9629,30.6633
1.1971,-2.25055,11.4251,-0.495929,0.954609,0.372478,-10.2973,43.9629,30.6633
1.25935,-2.1452,11.3629,-0.485286,0.960995,0.378864,-10.2973,43.9629,30.6633
1.2785,-2.20267,11.2527,-0.478901,0.958866,0.382057,-10.2973,43.9629,30.6633
1.23062,-2.19309,11.0756,-0.469323,0.966316,0.39057,-10.2973,43.9629,30.6633
1.31202,-2.1883,11.0277,-0.462938,0.974829,0.396956,-10.2973,43.9629,30.6633
1.21147,-2.13084,10.975,-0.455488,0.981215,0.403341,-10.2973,43.9629,30.6633
1.13964,-2.04465,11.0181,-0.448038,0.9876,0.409726,-10.2973,43.9629,30.6633
1.13006,-2.14999,11.0038,-0.449103,0.990793,0.412919,-10.2973,43.9629,30.6633
1.18274,-2.1069,10.8122,-0.440589,0.996114,0.419304,-10.2973,43.9629,30.6633
1.05824,-1.9824,10.6877,-0.435268,1.00995,0.420369,-10.2973,43.9629,30.6633
1.00078,-2.0638,10.8074,-0.426754,1.0174,0.42569,-10.2973,43.9629,30.6633
1.08218,-1.97761,11.0756,-0.422497,1.01953,0.435268,-10.2973,43.9629,30.6633
0.881066,-2.05901,10.8457,-0.416112,1.02804,0.439525,-10.2973,43.9629,30.6633
0.943315,-1.90578,10.6973,-0.417176,1.04188,0.439525,-10.2973,43.9629,30.6633
0.833182,-1.98719,10.7404,-0.412919,1.044,0.441653,-10.2973,43.9629,30.6633
